Folder: Cyclic-Voltammetry-Analysis/Data/2022-03-23 MQ HCF (part 5)

File: CV-Carbon-NiHCF-3.txt
Mar. 22, 2022   12:13:54
Cyclic Voltammetry
File: d:\mq\20220322-pba stability\cv-carbon-nihcf-3.txt
Data Source:  Experiment
Instrument Model:  CHI840D
Header:
Note:

Init E (V) = 0
High E (V) = 0.8
Low E (V) = 0
Init P/N = P
Scan Rate (V/s) = 0.05
Segment = 100
Sample Interval (V) = 0.001
Quiet Time (sec) = 2
Sensitivity (A/V) = 1e-4

Segment 1:
Ep = 0.468V
ip = 5.520e-5A
Ah = 1.218e-4C

Segment 2:
Ep = 0.283V
ip = -3.618e-5A
Ah = -8.151e-5C

Segment 3:
Ep = 0.467V
ip = 5.533e-5A
Ah = 1.219e-4C

Segment 4:
Ep = 0.283V
ip = -3.651e-5A
Ah = -8.193e-5C

Segment 5:
Ep = 0.467V
ip = 5.530e-5A
Ah = 1.219e-4C

Segment 6:
Ep = 0.283V
ip = -3.664e-5A
Ah = -8.216e-5C

Segment 7:
Ep = 0.467V
ip = 5.530e-5A
Ah = 1.219e-4C

Segment 8:
Ep = 0.283V
ip = -3.675e-5A
Ah = -8.237e-5C

Segment 9:
Ep = 0.467V
ip = 5.529e-5A
Ah = 1.220e-4C

Segment 10:
Ep = 0.283V
ip = -3.683e-5A
Ah = -8.256e-5C

Segment 11:
Ep = 0.467V
ip = 5.529e-5A
Ah = 1.219e-4C

Segment 12:
Ep = 0.283V
ip = -3.686e-5A
Ah = -8.276e-5C

Segment 13:
Ep = 0.467V
ip = 5.535e-5A
Ah = 1.219e-4C

Segment 14:
Ep = 0.283V
ip = -3.690e-5A
Ah = -8.291e-5C

Segment 15:
Ep = 0.467V
ip = 5.536e-5A
Ah = 1.219e-4C

Segment 16:
Ep = 0.283V
ip = -3.695e-5A
Ah = -8.306e-5C

Segment 17:
Ep = 0.467V
ip = 5.537e-5A
Ah = 1.219e-4C

Segment 18:
Ep = 0.283V
ip = -3.698e-5A
Ah = -8.322e-5C

Segment 19:
Ep = 0.467V
ip = 5.540e-5A
Ah = 1.219e-4C

Segment 20:
Ep = 0.283V
ip = -3.704e-5A
Ah = -8.339e-5C

Segment 21:
Ep = 0.467V
ip = 5.542e-5A
Ah = 1.219e-4C

Segment 22:
Ep = 0.283V
ip = -3.708e-5A
Ah = -8.355e-5C

Segment 23:
Ep = 0.467V
ip = 5.541e-5A
Ah = 1.219e-4C

Segment 24:
Ep = 0.283V
ip = -3.715e-5A
Ah = -8.369e-5C

Segment 25:
Ep = 0.467V
ip = 5.541e-5A
Ah = 1.219e-4C

Segment 26:
Ep = 0.283V
ip = -3.768e-5A
Ah = -8.507e-5C

Segment 27:
Ep = 0.467V
ip = 5.542e-5A
Ah = 1.218e-4C

Segment 28:
Ep = 0.283V
ip = -3.773e-5A
Ah = -8.522e-5C

Segment 29:
Ep = 0.467V
ip = 5.544e-5A
Ah = 1.218e-4C

Segment 30:
Ep = 0.283V
ip = -3.777e-5A
Ah = -8.536e-5C

Segment 31:
Ep = 0.467V
ip = 5.546e-5A
Ah = 1.218e-4C

Segment 32:
Ep = 0.284V
ip = -3.792e-5A
Ah = -8.474e-5C

Segment 33:
Ep = 0.467V
ip = 5.545e-5A
Ah = 1.218e-4C

Segment 34:
Ep = 0.283V
ip = -3.786e-5A
Ah = -8.563e-5C

Segment 35:
Ep = 0.467V
ip = 5.546e-5A
Ah = 1.218e-4C

Segment 36:
Ep = 0.283V
ip = -3.792e-5A
Ah = -8.577e-5C

Segment 37:
Ep = 0.467V
ip = 5.546e-5A
Ah = 1.218e-4C

Segment 38:
Ep = 0.283V
ip = -3.796e-5A
Ah = -8.590e-5C

Segment 39:
Ep = 0.467V
ip = 5.546e-5A
Ah = 1.218e-4C

Segment 40:
Ep = 0.284V
ip = -3.811e-5A
Ah = -8.525e-5C

Segment 41:
Ep = 0.467V
ip = 5.547e-5A
Ah = 1.217e-4C

Segment 42:
Ep = 0.284V
ip = -3.815e-5A
Ah = -8.539e-5C

Segment 43:
Ep = 0.467V
ip = 5.549e-5A
Ah = 1.217e-4C

Segment 44:
Ep = 0.284V
ip = -3.818e-5A
Ah = -8.551e-5C

Segment 45:
Ep = 0.467V
ip = 5.550e-5A
Ah = 1.217e-4C

Segment 46:
Ep = 0.284V
ip = -3.822e-5A
Ah = -8.562e-5C

Segment 47:
Ep = 0.467V
ip = 5.549e-5A
Ah = 1.217e-4C

Segment 48:
Ep = 0.284V
ip = -3.827e-5A
Ah = -8.574e-5C

Segment 49:
Ep = 0.467V
ip = 5.548e-5A
Ah = 1.217e-4C

Segment 50:
Ep = 0.284V
ip = -3.831e-5A
Ah = -8.586e-5C

Segment 51:
Ep = 0.467V
ip = 5.549e-5A
Ah = 1.217e-4C

Segment 52:
Ep = 0.284V
ip = -3.835e-5A
Ah = -8.597e-5C

Segment 53:
Ep = 0.467V
ip = 5.550e-5A
Ah = 1.216e-4C

Segment 54:
Ep = 0.284V
ip = -3.836e-5A
Ah = -8.607e-5C

Segment 55:
Ep = 0.467V
ip = 5.550e-5A
Ah = 1.216e-4C

Segment 56:
Ep = 0.284V
ip = -3.838e-5A
Ah = -8.618e-5C

Segment 57:
Ep = 0.467V
ip = 5.552e-5A
Ah = 1.216e-4C

Segment 58:
Ep = 0.284V
ip = -3.842e-5A
Ah = -8.630e-5C

Segment 59:
Ep = 0.467V
ip = 5.553e-5A
Ah = 1.216e-4C

Segment 60:
Ep = 0.284V
ip = -3.845e-5A
Ah = -8.641e-5C

Segment 61:
Ep = 0.467V
ip = 5.553e-5A
Ah = 1.215e-4C

Segment 62:
Ep = 0.284V
ip = -3.848e-5A
Ah = -8.651e-5C

Segment 63:
Ep = 0.467V
ip = 5.553e-5A
Ah = 1.215e-4C

Segment 64:
Ep = 0.284V
ip = -3.851e-5A
Ah = -8.660e-5C

Segment 65:
Ep = 0.467V
ip = 5.554e-5A
Ah = 1.215e-4C

Segment 66:
Ep = 0.284V
ip = -3.856e-5A
Ah = -8.670e-5C

Segment 67:
Ep = 0.467V
ip = 5.551e-5A
Ah = 1.215e-4C

Segment 68:
Ep = 0.284V
ip = -3.859e-5A
Ah = -8.678e-5C

Segment 69:
Ep = 0.467V
ip = 5.550e-5A
Ah = 1.215e-4C

Segment 70:
Ep = 0.284V
ip = -3.862e-5A
Ah = -8.687e-5C

Segment 71:
Ep = 0.467V
ip = 5.549e-5A
Ah = 1.214e-4C

Segment 72:
Ep = 0.284V
ip = -3.912e-5A
Ah = -8.814e-5C

Segment 73:
Ep = 0.467V
ip = 5.548e-5A
Ah = 1.214e-4C

Segment 74:
Ep = 0.285V
ip = -3.913e-5A
Ah = -8.823e-5C

Segment 75:
Ep = 0.466V
ip = 5.548e-5A
Ah = 1.214e-4C

Segment 76:
Ep = 0.286V
ip = -3.926e-5A
Ah = -8.755e-5C

Segment 77:
Ep = 0.466V
ip = 5.547e-5A
Ah = 1.213e-4C

Segment 78:
Ep = 0.286V
ip = -3.929e-5A
Ah = -8.765e-5C

Segment 79:
Ep = 0.466V
ip = 5.549e-5A
Ah = 1.213e-4C

Segment 80:
Ep = 0.286V
ip = -3.930e-5A
Ah = -8.775e-5C

Segment 81:
Ep = 0.466V
ip = 5.548e-5A
Ah = 1.213e-4C

Segment 82:
Ep = 0.286V
ip = -3.932e-5A
Ah = -8.783e-5C

Segment 83:
Ep = 0.466V
ip = 5.549e-5A
Ah = 1.212e-4C

Segment 84:
Ep = 0.286V
ip = -3.933e-5A
Ah = -8.791e-5C

Segment 85:
Ep = 0.466V
ip = 5.550e-5A
Ah = 1.212e-4C

Segment 86:
Ep = 0.286V
ip = -3.934e-5A
Ah = -8.801e-5C

Segment 87:
Ep = 0.466V
ip = 5.551e-5A
Ah = 1.212e-4C

Segment 88:
Ep = 0.286V
ip = -3.935e-5A
Ah = -8.809e-5C

Segment 89:
Ep = 0.466V
ip = 5.551e-5A
Ah = 1.212e-4C

Segment 90:
Ep = 0.286V
ip = -3.938e-5A
Ah = -8.818e-5C

Segment 91:
Ep = 0.466V
ip = 5.552e-5A
Ah = 1.211e-4C

Segment 92:
Ep = 0.286V
ip = -3.939e-5A
Ah = -8.825e-5C

Segment 93:
Ep = 0.466V
ip = 5.551e-5A
Ah = 1.211e-4C

Segment 94:
Ep = 0.286V
ip = -3.939e-5A
Ah = -8.832e-5C

Segment 95:
Ep = 0.466V
ip = 5.552e-5A
Ah = 1.211e-4C

Segment 96:
Ep = 0.286V
ip = -3.941e-5A
Ah = -8.839e-5C

Segment 97:
Ep = 0.466V
ip = 5.551e-5A
Ah = 1.211e-4C

Segment 98:
Ep = 0.286V
ip = -3.991e-5A
Ah = -8.967e-5C

Segment 99:
Ep = 0.466V
ip = 5.549e-5A
Ah = 1.210e-4C

Segment 100:
Ep = 0.286V
ip = -3.991e-5A
Ah = -8.973e-5C

Potential/V, Current/A

0.000, -7.667e-7
0.267, 8.909e-6
0.534, 4.226e-5
0.799, 1.447e-6
0.532, -5.551e-6
0.265, -7.057e-5
0.002, -1.747e-6
0.269, 9.219e-6
0.536, 3.932e-5
0.797, 1.282e-6
0.530, -5.761e-6
0.263, -7.010e-5
0.004, -1.682e-6
0.271, 9.623e-6
0.538, 3.728e-5
0.795, 1.225e-6
0.528, -5.994e-6
0.261, -6.949e-5
0.006, -1.630e-6
0.273, 1.002e-5
0.540, 3.544e-5
0.793, 1.187e-6
0.526, -6.231e-6
0.259, -6.880e-5
0.008, -1.585e-6
0.275, 1.043e-5
0.542, 3.370e-5
0.791, 1.154e-6
0.524, -6.479e-6
0.257, -6.802e-5
0.010, -1.543e-6
0.277, 1.084e-5
0.544, 3.206e-5
0.789, 1.125e-6
0.522, -6.733e-6
0.255, -6.714e-5
0.012, -1.505e-6
0.279, 1.124e-5
0.546, 3.054e-5
0.787, 1.098e-6
0.520, -6.997e-6
0.253, -6.620e-5
0.014, -1.471e-6
0.281, 1.169e-5
0.548, 2.901e-5
0.785, 1.072e-6
0.518, -7.269e-6
0.251, -6.520e-5
0.016, -1.436e-6
0.283, 1.215e-5
0.550, 2.758e-5
0.783, 1.047e-6
0.516, -7.549e-6
0.249, -6.408e-5
0.018, -1.402e-6
0.285, 1.260e-5
0.552, 2.623e-5
0.781, 1.024e-6
0.514, -7.835e-6
0.247, -6.292e-5
0.020, -1.369e-6
0.287, 1.308e-5
0.554, 2.493e-5
0.779, 1.001e-6
0.512, -8.128e-6
0.245, -6.168e-5
0.022, -1.340e-6
0.289, 1.359e-5
0.556, 2.367e-5
0.777, 9.799e-7
0.510, -8.434e-6
0.243, -6.039e-5
0.024, -1.309e-6
0.291, 1.410e-5
0.558, 2.248e-5
0.775, 9.609e-7
0.508, -8.739e-6
0.241, -5.900e-5
0.026, -1.281e-6
0.293, 1.462e-5
0.560, 2.138e-5
0.773, 9.434e-7
0.506, -9.054e-6
0.239, -5.755e-5
0.028, -1.255e-6
0.295, 1.516e-5
0.562, 2.036e-5
0.771, 9.259e-7
0.504, -9.375e-6
0.237, -5.599e-5
0.030, -1.230e-6
0.297, 1.570e-5
0.564, 1.940e-5
0.769, 9.079e-7
0.502, -9.700e-6
0.235, -5.440e-5
0.032, -1.205e-6
0.299, 1.628e-5
0.566, 1.847e-5
0.767, 8.869e-7
0.500, -1.003e-5
0.233, -5.279e-5
0.034, -1.179e-6
0.301, 1.687e-5
0.568, 1.759e-5
0.765, 8.687e-7
0.498, -1.036e-5
0.231, -5.113e-5
0.036, -1.154e-6
0.303, 1.746e-5
0.570, 1.677e-5
0.763, 8.507e-7
0.496, -1.070e-5
0.229, -4.941e-5
0.038, -1.132e-6
0.305, 1.807e-5
0.572, 1.601e-5
0.761, 8.341e-7
0.494, -1.105e-5
0.227, -4.766e-5
0.040, -1.110e-6
0.307, 1.868e-5
0.574, 1.530e-5
0.759, 8.180e-7
0.492, -1.140e-5
0.225, -4.587e-5
0.042, -1.089e-6
0.309, 1.929e-5
0.576, 1.464e-5
0.757, 8.048e-7
0.490, -1.176e-5
0.223, -4.408e-5
0.044, -1.070e-6
0.311, 1.993e-5
0.578, 1.401e-5
0.755, 7.884e-7
0.488, -1.212e-5
0.221, -4.234e-5
0.046, -1.047e-6
0.313, 2.060e-5
0.580, 1.340e-5
0.753, 7.732e-7
0.486, -1.249e-5
0.219, -4.063e-5
0.048, -1.029e-6
0.315, 2.128e-5
0.582, 1.283e-5
0.751, 7.559e-7
0.484, -1.285e-5
0.217, -3.891e-5
0.050, -1.009e-6
0.317, 2.195e-5
0.584, 1.231e-5
0.749, 7.412e-7
0.482, -1.323e-5
0.215, -3.724e-5
0.052, -9.887e-7
0.319, 2.264e-5
0.586, 1.183e-5
0.747, 7.271e-7
0.480, -1.362e-5
0.213, -3.559e-5
0.054, -9.707e-7
0.321, 2.336e-5
0.588, 1.136e-5
0.745, 7.144e-7
0.478, -1.401e-5
0.211, -3.401e-5
0.056, -9.519e-7
0.323, 2.406e-5
0.590, 1.093e-5
0.743, 7.016e-7
0.476, -1.441e-5
0.209, -3.248e-5
0.058, -9.320e-7
0.325, 2.478e-5
0.592, 1.052e-5
0.741, 6.892e-7
0.474, -1.481e-5
0.207, -3.101e-5
0.060, -9.138e-7
0.327, 2.551e-5
0.594, 1.013e-5
0.739, 6.783e-7
0.472, -1.522e-5
0.205, -2.961e-5
0.062, -8.964e-7
0.329, 2.626e-5
0.596, 9.751e-6
0.737, 6.655e-7
0.470, -1.564e-5
0.203, -2.829e-5
0.064, -8.779e-7
0.331, 2.703e-5
0.598, 9.395e-6
0.735, 6.527e-7
0.468, -1.605e-5
0.201, -2.704e-5
0.066, -8.599e-7
0.333, 2.781e-5
0.600, 9.055e-6
0.733, 6.387e-7
0.466, -1.648e-5
0.199, -2.585e-5
0.068, -8.427e-7
0.335, 2.861e-5
0.602, 8.732e-6
0.731, 6.251e-7
0.464, -1.692e-5
0.197, -2.472e-5
0.070, -8.258e-7
0.337, 2.940e-5
0.604, 8.431e-6
0.729, 6.115e-7
0.462, -1.736e-5
0.195, -2.363e-5
0.072, -8.080e-7
0.339, 3.020e-5
0.606, 8.146e-6
0.727, 5.990e-7
0.460, -1.781e-5
0.194, -2.261e-5
0.073, -7.906e-7
0.340, 3.100e-5
0.607, 7.881e-6
0.726, 5.870e-7
0.459, -1.827e-5
0.192, -2.164e-5
0.075, -7.738e-7
0.342, 3.180e-5
0.609, 7.628e-6
0.724, 5.744e-7
0.457, -1.872e-5
0.190, -2.072e-5
0.077, -7.574e-7
0.344, 3.259e-5
0.611, 7.389e-6
0.722, 5.626e-7
0.455, -1.919e-5
0.188, -1.985e-5
0.079, -7.446e-7
0.346, 3.342e-5
0.613, 7.154e-6
0.720, 5.499e-7
0.453, -1.967e-5
0.186, -1.902e-5
0.081, -7.287e-7
0.348, 3.423e-5
0.615, 6.927e-6
0.718, 5.378e-7
0.451, -2.015e-5
0.184, -1.825e-5
0.083, -7.138e-7
0.350, 3.504e-5
0.617, 6.719e-6
0.716, 5.239e-7
0.449, -2.065e-5
0.182, -1.751e-5
0.085, -6.998e-7
0.352, 3.587e-5
0.619, 6.518e-6
0.714, 5.127e-7
0.447, -2.116e-5
0.180, -1.682e-5
0.087, -6.835e-7
0.354, 3.671e-5
0.621, 6.325e-6
0.712, 5.015e-7
0.445, -2.167e-5
0.178, -1.614e-5
0.089, -6.701e-7
0.356, 3.755e-5
0.623, 6.140e-6
0.710, 4.884e-7
0.443, -2.219e-5
0.176, -1.553e-5
0.091, -6.554e-7
0.358, 3.840e-5
0.625, 5.965e-6
0.708, 4.768e-7
0.441, -2.273e-5
0.174, -1.494e-5
0.093, -6.415e-7
0.360, 3.926e-5
0.627, 5.802e-6
0.706, 4.656e-7
0.439, -2.326e-5
0.172, -1.439e-5
0.095, -6.273e-7
0.362, 4.012e-5
0.629, 5.641e-6
0.704, 4.550e-7
0.437, -2.381e-5
0.170, -1.386e-5
0.097, -6.129e-7
0.364, 4.099e-5
0.631, 5.483e-6
0.702, 4.429e-7
0.435, -2.438e-5
0.168, -1.337e-5
0.003, -2.375e-6