Folder: Cyclic-Voltammetry-Analysis/Data/2022-03-23 MQ HCF (part 2)

File: CV-Carbon-CuHCF-1.txt
Mar. 22, 2022   17:59:15
Cyclic Voltammetry
File: d:\mq\20220322-pba stability\cv-carbon-cuhcf-1.txt
Data Source:  Experiment
Instrument Model:  CHI840D
Header:
Note:

Init E (V) = 0.2
High E (V) = 1.1
Low E (V) = 0.2
Init P/N = P
Scan Rate (V/s) = 0.05
Segment = 100
Sample Interval (V) = 0.001
Quiet Time (sec) = 2
Sensitivity (A/V) = 1e-5

Segment 1:

Segment 2:

Segment 3:

Segment 4:

Segment 5:

Segment 6:

Segment 7:

Segment 8:

Segment 9:

Segment 10:

Segment 11:

Segment 12:

Segment 13:

Segment 14:

Segment 15:

Segment 16:

Segment 17:

Segment 18:

Segment 19:

Segment 20:

Segment 21:

Segment 22:

Segment 23:

Segment 24:

Segment 25:

Segment 26:

Segment 27:

Segment 28:

Segment 29:

Segment 30:

Segment 31:

Segment 32:

Segment 33:

Segment 34:

Segment 35:

Segment 36:

Segment 37:

Segment 38:

Segment 39:

Segment 40:

Segment 41:

Segment 42:

Segment 43:

Segment 44:

Segment 45:

Segment 46:

Segment 47:

Segment 48:

Segment 49:

Segment 50:

Segment 51:

Segment 52:

Segment 53:

Segment 54:

Segment 55:

Segment 56:

Segment 57:

Segment 58:

Segment 59:

Segment 60:

Segment 61:

Segment 62:

Segment 63:

Segment 64:

Segment 65:

Segment 66:

Segment 67:

Segment 68:

Segment 69:

Segment 70:

Segment 71:

Segment 72:

Segment 73:

Segment 74:

Segment 75:

Segment 76:

Segment 77:

Segment 78:

Segment 79:

Segment 80:

Segment 81:

Segment 82:

Segment 83:

Segment 84:

Segment 85:

Segment 86:

Segment 87:

Segment 88:

Segment 89:

Segment 90:

Segment 91:

Segment 92:

Segment 93:

Segment 94:

Segment 95:

Segment 96:

Segment 97:

Segment 98:

Segment 99:

Segment 100:

Potential/V, Current/A

0.200, -2.819e-6
0.500, 2.142e-6
0.800, 1.566e-5
1.100, 1.461e-6
0.800, -2.686e-6
0.500, -1.418e-5
0.200, -1.134e-6
0.500, 2.122e-6
0.800, 1.570e-5
1.100, 1.383e-6
0.800, -2.648e-6
0.500, -1.404e-5
0.200, -1.196e-6
0.500, 2.039e-6
0.800, 1.551e-5
1.100, 1.351e-6
0.800, -2.586e-6
0.500, -1.383e-5
0.200, -1.262e-6
0.500, 1.945e-6
0.800, 1.522e-5
1.100, 1.341e-6
0.800, -2.504e-6
0.500, -1.357e-5
0.200, -1.337e-6
0.500, 1.849e-6
0.800, 1.484e-5
1.100, 1.344e-6
0.800, -2.416e-6
0.500, -1.329e-5
0.200, -1.409e-6
0.500, 1.756e-6
0.800, 1.442e-5
1.100, 1.359e-6
0.800, -2.330e-6
0.500, -1.300e-5
0.200, -1.473e-6
0.500, 1.672e-6
0.800, 1.398e-5
1.100, 1.375e-6
0.800, -2.252e-6
0.500, -1.271e-5
0.200, -1.524e-6
0.500, 1.598e-6
0.800, 1.355e-5
1.100, 1.389e-6
0.800, -2.185e-6
0.500, -1.245e-5
0.200, -1.563e-6
0.500, 1.536e-6
0.800, 1.317e-5
1.100, 1.402e-6
0.800, -2.126e-6
0.500, -1.220e-5
0.200, -1.589e-6
0.500, 1.478e-6
0.800, 1.279e-5
1.100, 1.417e-6
0.800, -2.068e-6
0.500, -1.195e-5
0.200, -1.612e-6
0.500, 1.425e-6
0.800, 1.241e-5
1.100, 1.436e-6
0.800, -2.008e-6
0.500, -1.169e-5
0.200, -1.631e-6
0.500, 1.374e-6
0.800, 1.201e-5
1.100, 1.456e-6
0.800, -1.947e-6
0.500, -1.142e-5
0.200, -1.649e-6
0.500, 1.324e-6
0.800, 1.162e-5
1.100, 1.475e-6
0.800, -1.890e-6
0.500, -1.116e-5
0.200, -1.664e-6
0.500, 1.279e-6
0.800, 1.125e-5
1.100, 1.493e-6
0.800, -1.837e-6
0.500, -1.092e-5
0.200, -1.675e-6
0.500, 1.238e-6
0.800, 1.091e-5
1.100, 1.506e-6
0.800, -1.791e-6
0.500, -1.070e-5
0.200, -1.680e-6
0.500, 1.203e-6
0.800, 1.060e-5
1.100, 1.517e-6
0.800, -1.751e-6
0.500, -1.049e-5
0.200, -1.681e-6
0.500, 1.170e-6
0.800, 1.032e-5
1.100, 1.524e-6
0.800, -1.715e-6
0.500, -1.030e-5
0.200, -1.678e-6
0.500, 1.142e-6
0.800, 1.006e-5
1.100, 1.531e-6
0.800, -1.681e-6
0.500, -1.012e-5
0.200, -1.673e-6
0.500, 1.115e-6
0.800, 9.815e-6
1.100, 1.540e-6
0.800, -1.645e-6
0.500, -9.929e-6
0.200, -1.669e-6
0.500, 1.090e-6
0.800, 9.563e-6
1.100, 1.549e-6
0.800, -1.610e-6
0.500, -9.742e-6
0.200, -1.664e-6
0.500, 1.066e-6
0.800, 9.313e-6
1.100, 1.558e-6
0.800, -1.575e-6
0.500, -9.556e-6
0.200, -1.660e-6
0.500, 1.042e-6
0.800, 9.068e-6
1.100, 1.566e-6
0.800, -1.540e-6
0.500, -9.370e-6
0.200, -1.655e-6
0.500, 1.019e-6
0.800, 8.830e-6
1.100, 1.575e-6
0.800, -1.507e-6
0.500, -9.191e-6
0.200, -1.650e-6
0.500, 9.975e-7
0.800, 8.606e-6
1.100, 1.580e-6
0.800, -1.477e-6
0.500, -9.021e-6
0.200, -1.643e-6
0.500, 9.775e-7
0.800, 8.396e-6
1.100, 1.585e-6
0.800, -1.447e-6
0.500, -8.858e-6
0.200, -1.637e-6
0.500, 9.593e-7
0.800, 8.196e-6
1.100, 1.589e-6
0.800, -1.419e-6
0.500, -8.694e-6
0.200, -1.628e-6
0.500, 9.394e-7
0.800, 7.997e-6
1.100, 1.593e-6
0.800, -1.390e-6
0.500, -8.529e-6
0.200, -1.620e-6
0.500, 9.201e-7
0.800, 7.795e-6
1.100, 1.596e-6
0.800, -1.360e-6
0.500, -8.360e-6
0.200, -1.612e-6
0.500, 9.014e-7
0.800, 7.593e-6
1.100, 1.601e-6
0.800, -1.330e-6
0.500, -8.189e-6
0.200, -1.605e-6
0.500, 8.810e-7
0.800, 7.394e-6
1.100, 1.604e-6
0.800, -1.300e-6
0.500, -8.020e-6
0.200, -1.597e-6
0.500, 8.624e-7
0.800, 7.200e-6
1.100, 1.607e-6
0.800, -1.271e-6
0.500, -7.850e-6
0.200, -1.588e-6
0.500, 8.436e-7
0.800, 7.002e-6
1.100, 1.611e-6
0.800, -1.241e-6
0.500, -7.670e-6
0.200, -1.579e-6
0.500, 8.230e-7
0.800, 6.801e-6
1.100, 1.614e-6
0.800, -1.209e-6
0.500, -7.490e-6
0.200, -1.573e-6
0.500, 8.031e-7
0.800, 6.601e-6
1.100, 1.619e-6
0.800, -1.176e-6
0.500, -7.297e-6
0.200, -1.564e-6
0.500, 7.807e-7
0.800, 6.390e-6
1.100, 1.621e-6
0.800, -1.142e-6
0.500, -7.103e-6
0.200, -1.558e-6
0.500, 7.602e-7
0.800, 6.190e-6
1.100, 1.621e-6
0.800, -1.111e-6
0.500, -6.923e-6
0.200, -1.551e-6
0.500, 7.410e-7
0.800, 6.006e-6
1.100, 1.619e-6
0.800, -1.082e-6
0.500, -6.744e-6
0.200, -1.540e-6
0.500, 7.217e-7
0.800, 5.823e-6
1.100, 1.619e-6
0.800, -1.051e-6
0.500, -6.565e-6
0.200, -1.532e-6
0.500, 7.023e-7
0.800, 5.643e-6
1.100, 1.616e-6
0.800, -1.023e-6
0.500, -6.387e-6
0.200, -1.522e-6
0.500, 6.831e-7
0.800, 5.469e-6
1.100, 1.611e-6
0.800, -9.949e-7
0.500, -6.216e-6
0.200, -1.512e-6
0.500, 6.651e-7
0.800, 5.303e-6
1.100, 1.607e-6
0.800, -9.678e-7
0.500, -6.045e-6
0.200, -1.501e-6
0.500, 6.470e-7
0.800, 5.140e-6
1.100, 1.603e-6
0.800, -9.412e-7
0.500, -5.881e-6
0.200, -1.492e-6
0.500, 6.311e-7
0.800, 4.987e-6
1.100, 1.598e-6
0.800, -9.164e-7
0.500, -5.728e-6
0.200, -1.483e-6
0.500, 6.165e-7
0.800, 4.844e-6
1.100, 1.591e-6
0.800, -8.931e-7
0.500, -5.579e-6
0.200, -1.472e-6
0.500, 6.026e-7
0.800, 4.705e-6
1.100, 1.584e-6
0.800, -8.693e-7
0.500, -5.433e-6
0.200, -1.462e-6
0.500, 5.881e-7
0.800, 4.571e-6
1.100, 1.576e-6
0.800, -8.476e-7
0.500, -5.291e-6
0.200, -1.451e-6
0.500, 5.747e-7
0.800, 4.442e-6
1.100, 1.569e-6
0.800, -8.260e-7
0.500, -5.149e-6
0.200, -1.438e-6
0.500, 5.604e-7
0.800, 4.312e-6
1.100, 1.562e-6
0.800, -8.029e-7
0.500, -5.002e-6
0.200, -1.427e-6
0.500, 5.458e-7
0.800, 4.183e-6
1.100, 1.555e-6
0.800, -7.810e-7
0.500, -4.861e-6
0.200, -1.416e-6
0.500, 5.321e-7
0.800, 4.058e-6
1.100, 1.548e-6
0.800, -7.582e-7
0.500, -4.715e-6
0.202, -1.422e-6

File: CV-Carbon-CuHCF-2.txt
Mar. 22, 2022   19:28:35
Cyclic Voltammetry
File: d:\mq\20220322-pba stability\cv-carbon-cuhcf-2.txt
Data Source:  Experiment
Instrument Model:  CHI840D
Header:
Note:

Init E (V) = 0.2
High E (V) = 1.1
Low E (V) = 0.2
Init P/N = P
Scan Rate (V/s) = 0.05
Segment = 100
Sample Interval (V) = 0.001
Quiet Time (sec) = 2
Sensitivity (A/V) = 1e-5

Segment 1:
Ep = 0.718V
ip = 3.883e-6A
Ah = 8.846e-6C

Segment 2:

Segment 3:
Ep = 0.723V
ip = 5.381e-6A
Ah = 1.327e-5C

Segment 4:

Segment 5:
Ep = 0.727V
ip = 5.732e-6A
Ah = 1.462e-5C

Segment 6:

Segment 7:

Segment 8:

Segment 9:

Segment 10:

Segment 11:

Segment 12:

Segment 13:

Segment 14:

Segment 15:

Segment 16:

Segment 17:

Segment 18:

Segment 19:

Segment 20:

Segment 21:

Segment 22:

Segment 23:

Segment 24:

Segment 25:

Segment 26:

Segment 27:

Segment 28:

Segment 29:

Segment 30:

Segment 31:

Segment 32:

Segment 33:

Segment 34:

Segment 35:

Segment 36:

Segment 37:

Segment 38:

Segment 39:

Segment 40:

Segment 41:

Segment 42:

Segment 43:

Segment 44:

Segment 45:

Segment 46:

Segment 47:

Segment 48:

Segment 49:

Segment 50:

Segment 51:

Segment 52:

Segment 53:

Segment 54:

Segment 55:

Segment 56:

Segment 57:

Segment 58:

Segment 59:

Segment 60:

Segment 61:

Segment 62:

Segment 63:

Segment 64:

Segment 65:

Segment 66:

Segment 67:

Segment 68:

Segment 69:

Segment 70:

Segment 71:

Segment 72:

Segment 73:

Segment 74:

Segment 75:

Segment 76:

Segment 77:

Segment 78:

Segment 79:

Segment 80:

Segment 81:

Segment 82:

Segment 83:

Segment 84:

Segment 85:

Segment 86:

Segment 87:

Segment 88:

Segment 89:

Segment 90:

Segment 91:

Segment 92:

Segment 93:

Segment 94:

Segment 95:

Segment 96:

Segment 97:

Segment 98:

Segment 99:

Segment 100:

Potential/V, Current/A

0.200, -2.981e-7
0.500, 1.870e-6
0.800, 5.656e-6
1.100, 2.996e-6
0.800, -1.509e-6
0.500, -1.098e-5
0.200, -4.280e-7
0.500, 2.141e-6
0.800, 7.788e-6
1.100, 1.937e-6
0.800, -1.993e-6
0.500, -1.190e-5
0.200, -4.621e-7
0.500, 2.151e-6
0.800, 9.111e-6
1.100, 1.494e-6
0.800, -2.208e-6
0.500, -1.218e-5
0.200, -4.859e-7
0.500, 2.119e-6
0.800, 9.742e-6
1.100, 1.253e-6
0.800, -2.294e-6
0.500, -1.219e-5
0.200, -5.064e-7
0.500, 2.061e-6
0.800, 1.001e-5
1.100, 1.111e-6
0.800, -2.303e-6
0.500, -1.205e-5
0.200, -5.357e-7
0.500, 1.981e-6
0.800, 1.010e-5
1.100, 1.027e-6
0.800, -2.270e-6
0.500, -1.184e-5
0.200, -5.762e-7
0.500, 1.894e-6
0.800, 1.007e-5
1.100, 9.786e-7
0.800, -2.220e-6
0.500, -1.161e-5
0.200, -6.201e-7
0.500, 1.809e-6
0.800, 9.983e-6
1.100, 9.500e-7
0.800, -2.164e-6
0.500, -1.136e-5
0.200, -6.631e-7
0.500, 1.731e-6
0.800, 9.846e-6
1.100, 9.350e-7
0.800, -2.104e-6
0.500, -1.110e-5
0.200, -7.073e-7
0.500, 1.655e-6
0.800, 9.668e-6
1.100, 9.299e-7
0.800, -2.044e-6
0.500, -1.083e-5
0.200, -7.498e-7
0.500, 1.583e-6
0.800, 9.467e-6
1.100, 9.298e-7
0.800, -1.985e-6
0.500, -1.057e-5
0.200, -7.898e-7
0.500, 1.516e-6
0.800, 9.247e-6
1.100, 9.343e-7
0.800, -1.927e-6
0.500, -1.030e-5
0.200, -8.272e-7
0.500, 1.456e-6
0.800, 9.014e-6
1.100, 9.425e-7
0.800, -1.872e-6
0.500, -1.005e-5
0.200, -8.609e-7
0.500, 1.401e-6
0.800, 8.782e-6
1.100, 9.515e-7
0.800, -1.820e-6
0.500, -9.798e-6
0.200, -8.911e-7
0.500, 1.351e-6
0.800, 8.549e-6
1.100, 9.600e-7
0.800, -1.770e-6
0.500, -9.554e-6
0.200, -9.172e-7
0.500, 1.304e-6
0.800, 8.320e-6
1.100, 9.692e-7
0.800, -1.723e-6
0.500, -9.314e-6
0.200, -9.394e-7
0.500, 1.260e-6
0.800, 8.094e-6
1.100, 9.783e-7
0.800, -1.676e-6
0.500, -9.084e-6
0.200, -9.588e-7
0.500, 1.219e-6
0.800, 7.876e-6
1.100, 9.871e-7
0.800, -1.632e-6
0.500, -8.862e-6
0.200, -9.757e-7
0.500, 1.183e-6
0.800, 7.659e-6
1.100, 9.964e-7
0.800, -1.589e-6
0.500, -8.639e-6
0.200, -9.897e-7
0.500, 1.148e-6
0.800, 7.441e-6
1.100, 1.007e-6
0.800, -1.545e-6
0.500, -8.409e-6
0.200, -1.004e-6
0.500, 1.111e-6
0.800, 7.216e-6
1.100, 1.018e-6
0.800, -1.501e-6
0.500, -8.183e-6
0.200, -1.019e-6
0.500, 1.078e-6
0.800, 7.003e-6
1.100, 1.024e-6
0.800, -1.464e-6
0.500, -7.983e-6
0.200, -1.029e-6
0.500, 1.049e-6
0.800, 6.819e-6
1.100, 1.027e-6
0.800, -1.432e-6
0.500, -7.805e-6
0.200, -1.034e-6
0.500, 1.026e-6
0.800, 6.650e-6
1.100, 1.030e-6
0.800, -1.401e-6
0.500, -7.628e-6
0.200, -1.037e-6
0.500, 1.002e-6
0.800, 6.479e-6
1.100, 1.035e-6
0.800, -1.369e-6
0.500, -7.449e-6
0.200, -1.041e-6
0.500, 9.781e-7
0.800, 6.309e-6
1.100, 1.038e-6
0.800, -1.339e-6
0.500, -7.282e-6
0.200, -1.045e-6
0.500, 9.576e-7
0.800, 6.154e-6
1.100, 1.040e-6
0.800, -1.313e-6
0.500, -7.125e-6
0.200, -1.045e-6
0.500, 9.385e-7
0.800, 6.008e-6
1.100, 1.042e-6
0.800, -1.287e-6
0.500, -6.974e-6
0.200, -1.045e-6
0.500, 9.201e-7
0.800, 5.868e-6
1.100, 1.041e-6
0.800, -1.263e-6
0.500, -6.830e-6
0.200, -1.044e-6
0.500, 9.035e-7
0.800, 5.736e-6
1.100, 1.041e-6
0.800, -1.242e-6
0.500, -6.692e-6
0.200, -1.041e-6
0.500, 8.875e-7
0.800, 5.606e-6
1.100, 1.041e-6
0.800, -1.218e-6
0.500, -6.551e-6
0.200, -1.038e-6
0.500, 8.713e-7
0.800, 5.475e-6
1.100, 1.041e-6
0.800, -1.194e-6
0.500, -6.409e-6
0.200, -1.035e-6
0.500, 8.541e-7
0.800, 5.345e-6
1.100, 1.041e-6
0.800, -1.170e-6
0.500, -6.265e-6
0.200, -1.033e-6
0.500, 8.373e-7
0.800, 5.217e-6
1.100, 1.042e-6
0.800, -1.147e-6
0.500, -6.129e-6
0.200, -1.033e-6
0.500, 8.222e-7
0.800, 5.097e-6
1.100, 1.041e-6
0.800, -1.125e-6
0.500, -5.999e-6
0.200, -1.030e-6
0.500, 8.067e-7
0.800, 4.985e-6
1.100, 1.041e-6
0.800, -1.102e-6
0.500, -5.870e-6
0.200, -1.027e-6
0.500, 7.911e-7
0.800, 4.869e-6
1.100, 1.041e-6
0.800, -1.081e-6
0.500, -5.738e-6
0.200, -1.023e-6
0.500, 7.765e-7
0.800, 4.753e-6
1.100, 1.041e-6
0.800, -1.058e-6
0.500, -5.607e-6
0.200, -1.020e-6
0.500, 7.604e-7
0.800, 4.637e-6
1.100, 1.040e-6
0.800, -1.036e-6
0.500, -5.475e-6
0.200, -1.017e-6
0.500, 7.465e-7
0.800, 4.525e-6
1.100, 1.039e-6
0.800, -1.014e-6
0.500, -5.349e-6
0.200, -1.015e-6
0.500, 7.318e-7
0.800, 4.417e-6
1.100, 1.039e-6
0.800, -9.927e-7
0.500, -5.220e-6
0.200, -1.011e-6
0.500, 7.168e-7
0.800, 4.307e-6
1.100, 1.039e-6
0.800, -9.699e-7
0.500, -5.090e-6
0.200, -1.007e-6
0.500, 7.006e-7
0.800, 4.198e-6
1.100, 1.039e-6
0.800, -9.482e-7
0.500, -4.964e-6
0.200, -1.005e-6
0.500, 6.849e-7
0.800, 4.092e-6
1.100, 1.037e-6
0.800, -9.268e-7
0.500, -4.838e-6
0.200, -1.001e-6
0.500, 6.714e-7
0.800, 3.985e-6
1.100, 1.038e-6
0.800, -9.043e-7
0.500, -4.706e-6
0.200, -9.968e-7
0.500, 6.558e-7
0.800, 3.878e-6
1.100, 1.039e-6
0.800, -8.803e-7
0.500, -4.574e-6
0.200, -9.942e-7
0.500, 6.394e-7
0.800, 3.768e-6
1.100, 1.039e-6
0.800, -8.561e-7
0.500, -4.444e-6
0.200, -9.917e-7
0.500, 6.243e-7
0.800, 3.663e-6
1.100, 1.037e-6
0.800, -8.348e-7
0.500, -4.322e-6
0.200, -9.886e-7
0.500, 6.098e-7
0.800, 3.563e-6
1.100, 1.036e-6
0.800, -8.134e-7
0.500, -4.199e-6
0.200, -9.849e-7
0.500, 5.948e-7
0.800, 3.463e-6
1.100, 1.035e-6
0.800, -7.920e-7
0.500, -4.078e-6
0.202, -9.962e-7

File: CV-Carbon-CuHCF-3.txt
Mar. 22, 2022   20:19:18
Cyclic Voltammetry
File: d:\mq\20220322-pba stability\cv-carbon-cuhcf-3.txt
Data Source:  Experiment
Instrument Model:  CHI840D
Header:
Note:

Init E (V) = 0.2
High E (V) = 1.1
Low E (V) = 0.2
Init P/N = P
Scan Rate (V/s) = 0.05
Segment = 100
Sample Interval (V) = 0.001
Quiet Time (sec) = 2
Sensitivity (A/V) = 1e-5

Segment 1:
Ep = 0.713V
ip = 5.862e-6A
Ah = 1.407e-5C

Segment 2:

Segment 3:
Ep = 0.718V
ip = 5.921e-6A
Ah = 1.452e-5C

Segment 4:

Segment 5:
Ep = 0.721V
ip = 5.749e-6A
Ah = 1.439e-5C

Segment 6:

Segment 7:
Ep = 0.723V
ip = 5.523e-6A
Ah = 1.406e-5C

Segment 8:

Segment 9:
Ep = 0.724V
ip = 5.309e-6A
Ah = 1.364e-5C

Segment 10:

Segment 11:

Segment 12:

Segment 13:

Segment 14:

Segment 15:

Segment 16:

Segment 17:

Segment 18:

Segment 19:

Segment 20:

Segment 21:

Segment 22:

Segment 23:

Segment 24:

Segment 25:

Segment 26:

Segment 27:

Segment 28:

Segment 29:

Segment 30:

Segment 31:

Segment 32:

Segment 33:

Segment 34:

Segment 35:
Ep = 0.709V
ip = 3.142e-6A
Ah = 8.058e-6C

Segment 36:

Segment 37:
Ep = 0.708V
ip = 3.027e-6A
Ah = 7.768e-6C

Segment 38:

Segment 39:
Ep = 0.707V
ip = 2.900e-6A
Ah = 7.434e-6C

Segment 40:

Segment 41:
Ep = 0.705V
ip = 2.800e-6A
Ah = 7.097e-6C

Segment 42:

Segment 43:
Ep = 0.705V
ip = 2.699e-6A
Ah = 6.892e-6C

Segment 44:

Segment 45:
Ep = 0.703V
ip = 2.618e-6A
Ah = 6.602e-6C

Segment 46:

Segment 47:
Ep = 0.702V
ip = 2.539e-6A
Ah = 6.379e-6C

Segment 48:

Segment 49:
Ep = 0.702V
ip = 2.461e-6A
Ah = 6.218e-6C

Segment 50:

Segment 51:
Ep = 0.701V
ip = 2.387e-6A
Ah = 6.006e-6C

Segment 52:

Segment 53:
Ep = 0.700V
ip = 2.300e-6A
Ah = 5.761e-6C

Segment 54:

Segment 55:
Ep = 0.699V
ip = 2.236e-6A
Ah = 5.569e-6C

Segment 56:

Segment 57:
Ep = 0.699V
ip = 2.154e-6A
Ah = 5.391e-6C

Segment 58:

Segment 59:
Ep = 0.699V
ip = 2.045e-6A
Ah = 5.150e-6C

Segment 60:

Segment 61:
Ep = 0.698V
ip = 1.957e-6A
Ah = 4.911e-6C

Segment 62:

Segment 63:
Ep = 0.697V
ip = 1.876e-6A
Ah = 4.690e-6C

Segment 64:

Segment 65:
Ep = 0.696V
ip = 1.783e-6A
Ah = 4.438e-6C

Segment 66:
Ep = 0.539V
ip = -6.941e-7A
Ah = -1.787e-6C

Segment 67:
Ep = 0.696V
ip = 1.708e-6A
Ah = 4.269e-6C

Segment 68:
Ep = 0.540V
ip = -6.706e-7A
Ah = -1.711e-6C

Segment 69:
Ep = 0.695V
ip = 1.624e-6A
Ah = 4.036e-6C

Segment 70:
Ep = 0.541V
ip = -6.451e-7A
Ah = -1.632e-6C

Segment 71:
Ep = 0.694V
ip = 1.551e-6A
Ah = 3.834e-6C

Segment 72:
Ep = 0.541V
ip = -6.201e-7A
Ah = -1.576e-6C

Segment 73:
Ep = 0.694V
ip = 1.461e-6A
Ah = 3.631e-6C

Segment 74:
Ep = 0.541V
ip = -5.862e-7A
Ah = -1.499e-6C

Segment 75:
Ep = 0.694V
ip = 1.386e-6A
Ah = 3.458e-6C

Segment 76:
Ep = 0.542V
ip = -5.644e-7A
Ah = -1.427e-6C

Segment 77:
Ep = 0.693V
ip = 1.305e-6A
Ah = 3.239e-6C

Segment 78:
Ep = 0.543V
ip = -5.365e-7A
Ah = -1.340e-6C

Segment 79:
Ep = 0.693V
ip = 1.235e-6A
Ah = 3.076e-6C

Segment 80:
Ep = 0.543V
ip = -5.110e-7A
Ah = -1.281e-6C

Segment 81:
Ep = 0.693V
ip = 1.158e-6A
Ah = 2.898e-6C

Segment 82:
Ep = 0.543V
ip = -4.814e-7A
Ah = -1.211e-6C

Segment 83:
Ep = 0.692V
ip = 1.089e-6A
Ah = 2.707e-6C

Segment 84:
Ep = 0.544V
ip = -4.550e-7A
Ah = -1.132e-6C

Segment 85:
Ep = 0.693V
ip = 1.023e-6A
Ah = 2.576e-6C

Segment 86:
Ep = 0.544V
ip = -4.341e-7A
Ah = -1.085e-6C

Segment 87:
Ep = 0.692V
ip = 9.638e-7A
Ah = 2.409e-6C

Segment 88:
Ep = 0.544V
ip = -4.094e-7A
Ah = -1.027e-6C

Segment 89:
Ep = 0.692V
ip = 9.028e-7A
Ah = 2.262e-6C

Segment 90:
Ep = 0.545V
ip = -3.882e-7A
Ah = -9.608e-7C

Segment 91:
Ep = 0.692V
ip = 8.457e-7A
Ah = 2.123e-6C

Segment 92:
Ep = 0.545V
ip = -3.707e-7A
Ah = -9.224e-7C

Segment 93:
Ep = 0.692V
ip = 7.902e-7A
Ah = 1.989e-6C

Segment 94:
Ep = 0.546V
ip = -3.511e-7A
Ah = -8.579e-7C

Segment 95:
Ep = 0.692V
ip = 7.342e-7A
Ah = 1.852e-6C

Segment 96:
Ep = 0.546V
ip = -3.255e-7A
Ah = -7.954e-7C

Segment 97:
Ep = 0.692V
ip = 6.772e-7A
Ah = 1.714e-6C

Segment 98:
Ep = 0.547V
ip = -3.026e-7A
Ah = -7.285e-7C

Segment 99:
Ep = 0.693V
ip = 6.242e-7A
Ah = 1.596e-6C

Segment 100:
Ep = 0.546V
ip = -2.780e-7A
Ah = -6.790e-7C

Potential/V, Current/A

0.200, -5.215e-7
0.500, 1.610e-6
0.800, 6.614e-6
1.100, 1.321e-6
0.800, -1.748e-6
0.500, -9.742e-6
0.200, -5.365e-7
0.500, 1.477e-6
0.800, 6.973e-6
1.100, 1.137e-6
0.800, -1.725e-6
0.500, -9.534e-6
0.200, -6.121e-7
0.500, 1.382e-6
0.800, 7.125e-6
1.100, 1.049e-6
0.800, -1.682e-6
0.500, -9.284e-6
0.200, -6.726e-7
0.500, 1.305e-6
0.800, 7.148e-6
1.100, 1.000e-6
0.800, -1.628e-6
0.500, -9.004e-6
0.200, -7.244e-7
0.500, 1.233e-6
0.800, 7.084e-6
1.100, 9.788e-7
0.800, -1.564e-6
0.500, -8.680e-6
0.200, -7.711e-7
0.500, 1.162e-6
0.800, 6.927e-6
1.100, 9.748e-7
0.800, -1.488e-6
0.500, -8.304e-6
0.200, -8.184e-7
0.500, 1.088e-6
0.800, 6.682e-6
1.100, 9.820e-7
0.800, -1.408e-6
0.500, -7.899e-6
0.200, -8.639e-7
0.500, 1.018e-6
0.800, 6.387e-6
1.100, 9.938e-7
0.800, -1.333e-6
0.500, -7.503e-6
0.200, -9.019e-7
0.500, 9.538e-7
0.800, 6.079e-6
1.100, 1.006e-6
0.800, -1.263e-6
0.500, -7.124e-6
0.200, -9.291e-7
0.500, 8.985e-7
0.800, 5.774e-6
1.100, 1.017e-6
0.800, -1.203e-6
0.500, -6.767e-6
0.200, -9.473e-7
0.500, 8.485e-7
0.800, 5.482e-6
1.100, 1.027e-6
0.800, -1.145e-6
0.500, -6.416e-6
0.200, -9.602e-7
0.500, 8.019e-7
0.800, 5.190e-6
1.100, 1.037e-6
0.800, -1.087e-6
0.500, -6.064e-6
0.200, -9.686e-7
0.500, 7.588e-7
0.800, 4.902e-6
1.100, 1.045e-6
0.800, -1.033e-6
0.500, -5.737e-6
0.200, -9.757e-7
0.500, 7.209e-7
0.800, 4.634e-6
1.100, 1.049e-6
0.800, -9.850e-7
0.500, -5.437e-6
0.200, -9.759e-7
0.500, 6.870e-7
0.800, 4.389e-6
1.100, 1.050e-6
0.800, -9.414e-7
0.500, -5.158e-6
0.200, -9.729e-7
0.500, 6.570e-7
0.800, 4.167e-6
1.100, 1.049e-6
0.800, -9.014e-7
0.500, -4.908e-6
0.200, -9.686e-7
0.500, 6.303e-7
0.800, 3.970e-6
1.100, 1.046e-6
0.800, -8.651e-7
0.500, -4.679e-6
0.200, -9.610e-7
0.500, 6.074e-7
0.800, 3.782e-6
1.100, 1.042e-6
0.800, -8.322e-7
0.500, -4.461e-6
0.200, -9.542e-7
0.500, 5.862e-7
0.800, 3.606e-6
1.100, 1.040e-6
0.800, -7.988e-7
0.500, -4.253e-6
0.200, -9.479e-7
0.500, 5.649e-7
0.800, 3.442e-6
1.100, 1.035e-6
0.800, -7.672e-7
0.500, -4.058e-6
0.200, -9.421e-7
0.500, 5.448e-7
0.800, 3.292e-6
1.100, 1.029e-6
0.800, -7.390e-7
0.500, -3.882e-6
0.200, -9.358e-7
0.500, 5.271e-7
0.800, 3.157e-6
1.100, 1.022e-6
0.800, -7.140e-7
0.500, -3.723e-6
0.200, -9.275e-7
0.500, 5.113e-7
0.800, 3.031e-6
1.100, 1.014e-6
0.800, -6.911e-7
0.500, -3.576e-6
0.200, -9.197e-7
0.500, 4.968e-7
0.800, 2.915e-6
1.100, 1.007e-6
0.800, -6.699e-7
0.500, -3.440e-6
0.200, -9.114e-7
0.500, 4.831e-7
0.800, 2.808e-6
1.100, 1.000e-6
0.800, -6.493e-7
0.500, -3.311e-6
0.200, -9.031e-7
0.500, 4.704e-7
0.800, 2.707e-6
1.100, 9.941e-7
0.800, -6.293e-7
0.500, -3.186e-6
0.200, -8.956e-7
0.500, 4.577e-7
0.800, 2.611e-6
1.100, 9.868e-7
0.800, -6.104e-7
0.500, -3.068e-6
0.200, -8.855e-7
0.500, 4.454e-7
0.800, 2.516e-6
1.100, 9.789e-7
0.800, -5.914e-7
0.500, -2.946e-6
0.200, -8.734e-7
0.500, 4.320e-7
0.800, 2.418e-6
1.100, 9.756e-7
0.800, -5.687e-7
0.500, -2.813e-6
0.200, -8.649e-7
0.500, 4.173e-7
0.800, 2.312e-6
1.100, 9.728e-7
0.800, -5.444e-7
0.500, -2.677e-6
0.200, -8.588e-7
0.500, 4.017e-7
0.800, 2.208e-6
1.100, 9.677e-7
0.800, -5.217e-7
0.500, -2.551e-6
0.200, -8.528e-7
0.500, 3.870e-7
0.800, 2.110e-6
1.100, 9.618e-7
0.800, -5.010e-7
0.500, -2.430e-6
0.200, -8.470e-7
0.500, 3.734e-7
0.800, 2.017e-6
1.100, 9.549e-7
0.800, -4.812e-7
0.500, -2.319e-6
0.200, -8.405e-7
0.500, 3.598e-7
0.800, 1.930e-6
1.100, 9.476e-7
0.800, -4.617e-7
0.500, -2.211e-6
0.200, -8.306e-7
0.500, 3.465e-7
0.800, 1.848e-6
1.100, 9.408e-7
0.800, -4.437e-7
0.500, -2.102e-6
0.200, -8.208e-7
0.500, 3.339e-7
0.800, 1.762e-6
1.100, 9.364e-7
0.800, -4.243e-7
0.500, -1.995e-6
0.200, -8.113e-7
0.500, 3.227e-7
0.800, 1.677e-6
1.100, 9.286e-7
0.800, -4.063e-7
0.500, -1.892e-6
0.200, -8.034e-7
0.500, 3.103e-7
0.800, 1.594e-6
1.100, 9.214e-7
0.800, -3.884e-7
0.500, -1.791e-6
0.200, -7.945e-7
0.500, 2.982e-7
0.800, 1.514e-6
1.100, 9.131e-7
0.800, -3.711e-7
0.500, -1.697e-6
0.200, -7.864e-7
0.500, 2.870e-7
0.800, 1.438e-6
1.100, 9.063e-7
0.800, -3.548e-7
0.500, -1.606e-6
0.200, -7.790e-7
0.500, 2.765e-7
0.800, 1.365e-6
1.100, 8.988e-7
0.800, -3.394e-7
0.500, -1.520e-6
0.200, -7.720e-7
0.500, 2.660e-7
0.800, 1.297e-6
1.100, 8.899e-7
0.800, -3.254e-7
0.500, -1.443e-6
0.200, -7.646e-7
0.500, 2.561e-7
0.800, 1.235e-6
1.100, 8.812e-7
0.800, -3.124e-7
0.500, -1.370e-6
0.200, -7.534e-7
0.500, 2.470e-7
0.800, 1.175e-6
1.100, 8.734e-7
0.800, -2.999e-7
0.500, -1.298e-6
0.200, -7.425e-7
0.500, 2.385e-7
0.800, 1.116e-6
1.100, 8.633e-7
0.800, -2.878e-7
0.500, -1.231e-6
0.200, -7.329e-7
0.500, 2.303e-7
0.800, 1.060e-6
1.100, 8.532e-7
0.800, -2.765e-7
0.500, -1.166e-6
0.200, -7.236e-7
0.500, 2.226e-7
0.800, 1.007e-6
1.100, 8.455e-7
0.800, -2.653e-7
0.500, -1.103e-6
0.200, -7.131e-7
0.500, 2.154e-7
0.800, 9.533e-7
1.100, 8.395e-7
0.800, -2.534e-7
0.500, -1.037e-6
0.200, -7.018e-7
0.500, 2.069e-7
0.800, 8.991e-7
1.100, 8.304e-7
0.800, -2.419e-7
0.500, -9.745e-7
0.200, -6.921e-7
0.500, 1.990e-7
0.800, 8.473e-7
1.100, 8.210e-7
0.800, -2.313e-7
0.500, -9.160e-7
0.202, -6.932e-7