Folder: Cyclic-Voltammetry-Analysis/Data/2022-03-23 MQ HCF

File: CV-Carbon-CoHCF-1.txt
Mar. 22, 2022   16:10:38
Cyclic Voltammetry
File: d:\mq\20220322-pba stability\cv-carbon-cohcf-1.txt
Data Source:  Experiment
Instrument Model:  CHI840D
Header:
Note:

Init E (V) = 0.2
High E (V) = 1.2
Low E (V) = 0.2
Init P/N = P
Scan Rate (V/s) = 0.05
Segment = 100
Sample Interval (V) = 0.001
Quiet Time (sec) = 2
Sensitivity (A/V) = 1e-5

Segment 1:

Segment 2:

Segment 3:

Segment 4:

Segment 5:

Segment 6:

Segment 7:

Segment 8:

Segment 9:

Segment 10:

Segment 11:

Segment 12:

Segment 13:

Segment 14:

Segment 15:

Segment 16:

Segment 17:

Segment 18:

Segment 19:

Segment 20:

Segment 21:

Segment 22:

Segment 23:

Segment 24:

Segment 25:

Segment 26:

Segment 27:

Segment 28:

Segment 29:

Segment 30:

Segment 31:

Segment 32:

Segment 33:

Segment 34:

Segment 35:

Segment 36:

Segment 37:

Segment 38:

Segment 39:

Segment 40:

Segment 41:

Segment 42:

Segment 43:

Segment 44:

Segment 45:

Segment 46:

Segment 47:

Segment 48:

Segment 49:

Segment 50:

Segment 51:

Segment 52:

Segment 53:

Segment 54:

Segment 55:

Segment 56:

Segment 57:

Segment 58:

Segment 59:

Segment 60:

Segment 61:

Segment 62:

Segment 63:

Segment 64:

Segment 65:

Segment 66:

Segment 67:

Segment 68:

Segment 69:

Segment 70:

Segment 71:

Segment 72:

Segment 73:

Segment 74:

Segment 75:

Segment 76:

Segment 77:

Segment 78:

Segment 79:

Segment 80:

Segment 81:

Segment 82:

Segment 83:

Segment 84:

Segment 85:

Segment 86:

Segment 87:

Segment 88:

Segment 89:

Segment 90:

Segment 91:

Segment 92:

Segment 93:

Segment 94:

Segment 95:

Segment 96:

Segment 97:

Segment 98:

Segment 99:

Segment 100:

Potential/V, Current/A

0.200, -3.634e-6
0.534, 6.703e-7
0.868, 5.643e-6
1.198, 6.852e-6
0.864, -1.193e-6
0.530, -4.518e-6
0.204, -2.864e-6
0.538, 8.355e-7
0.872, 6.084e-6
1.194, 6.067e-6
0.860, -1.355e-6
0.526, -4.788e-6
0.208, -2.936e-6
0.542, 8.609e-7
0.876, 6.219e-6
1.190, 5.532e-6
0.856, -1.452e-6
0.522, -4.974e-6
0.212, -2.972e-6
0.546, 9.000e-7
0.880, 6.303e-6
1.186, 5.109e-6
0.852, -1.509e-6
0.518, -5.106e-6
0.216, -2.987e-6
0.550, 9.480e-7
0.884, 6.344e-6
1.182, 4.758e-6
0.848, -1.540e-6
0.514, -5.210e-6
0.220, -2.992e-6
0.554, 1.002e-6
0.888, 6.360e-6
1.178, 4.455e-6
0.844, -1.555e-6
0.510, -5.298e-6
0.224, -2.988e-6
0.558, 1.061e-6
0.892, 6.359e-6
1.174, 4.179e-6
0.840, -1.565e-6
0.506, -5.350e-6
0.228, -2.967e-6
0.562, 1.116e-6
0.896, 6.342e-6
1.170, 3.934e-6
0.836, -1.571e-6
0.502, -5.405e-6
0.232, -2.950e-6
0.566, 1.178e-6
0.900, 6.329e-6
1.166, 3.714e-6
0.832, -1.574e-6
0.498, -5.444e-6
0.236, -2.922e-6
0.570, 1.237e-6
0.904, 6.303e-6
1.162, 3.512e-6
0.828, -1.577e-6
0.494, -5.480e-6
0.240, -2.894e-6
0.574, 1.300e-6
0.908, 6.280e-6
1.158, 3.329e-6
0.824, -1.581e-6
0.490, -5.506e-6
0.244, -2.859e-6
0.578, 1.360e-6
0.912, 6.253e-6
1.154, 3.158e-6
0.820, -1.586e-6
0.486, -5.530e-6
0.248, -2.825e-6
0.582, 1.422e-6
0.916, 6.221e-6
1.150, 2.990e-6
0.816, -1.593e-6
0.482, -5.531e-6
0.252, -2.778e-6
0.586, 1.477e-6
0.920, 6.173e-6
1.146, 2.830e-6
0.812, -1.596e-6
0.478, -5.534e-6
0.256, -2.737e-6
0.590, 1.538e-6
0.924, 6.133e-6
1.142, 2.684e-6
0.808, -1.596e-6
0.474, -5.535e-6
0.260, -2.696e-6
0.594, 1.600e-6
0.928, 6.098e-6
1.138, 2.550e-6
0.804, -1.598e-6
0.470, -5.547e-6
0.264, -2.665e-6
0.598, 1.668e-6
0.932, 6.074e-6
1.134, 2.429e-6
0.800, -1.602e-6
0.466, -5.554e-6
0.268, -2.627e-6
0.602, 1.733e-6
0.936, 6.041e-6
1.130, 2.311e-6
0.796, -1.606e-6
0.462, -5.551e-6
0.272, -2.587e-6
0.606, 1.796e-6
0.940, 6.010e-6
1.126, 2.198e-6
0.792, -1.613e-6
0.458, -5.553e-6
0.276, -2.549e-6
0.610, 1.861e-6
0.944, 5.982e-6
1.122, 2.094e-6
0.788, -1.623e-6
0.454, -5.547e-6
0.280, -2.507e-6
0.614, 1.921e-6
0.948, 5.949e-6
1.118, 1.995e-6
0.784, -1.633e-6
0.450, -5.548e-6
0.284, -2.473e-6
0.618, 1.988e-6
0.952, 5.928e-6
1.114, 1.902e-6
0.780, -1.646e-6
0.446, -5.536e-6
0.288, -2.429e-6
0.622, 2.049e-6
0.956, 5.896e-6
1.110, 1.813e-6
0.776, -1.658e-6
0.442, -5.524e-6
0.292, -2.389e-6
0.626, 2.111e-6
0.960, 5.872e-6
1.106, 1.731e-6
0.772, -1.673e-6
0.438, -5.523e-6
0.296, -2.354e-6
0.630, 2.177e-6
0.964, 5.854e-6
1.102, 1.654e-6
0.768, -1.689e-6
0.434, -5.522e-6
0.300, -2.319e-6
0.634, 2.243e-6
0.968, 5.838e-6
1.098, 1.580e-6
0.764, -1.708e-6
0.430, -5.516e-6
0.304, -2.283e-6
0.638, 2.309e-6
0.972, 5.818e-6
1.094, 1.508e-6
0.760, -1.728e-6
0.426, -5.508e-6
0.308, -2.246e-6
0.642, 2.375e-6
0.976, 5.802e-6
1.090, 1.440e-6
0.756, -1.749e-6
0.422, -5.501e-6
0.312, -2.209e-6
0.646, 2.437e-6
0.980, 5.782e-6
1.086, 1.373e-6
0.752, -1.771e-6
0.418, -5.483e-6
0.316, -2.169e-6
0.650, 2.496e-6
0.984, 5.757e-6
1.082, 1.307e-6
0.748, -1.793e-6
0.414, -5.459e-6
0.320, -2.127e-6
0.654, 2.554e-6
0.988, 5.731e-6
1.078, 1.243e-6
0.744, -1.816e-6
0.410, -5.448e-6
0.324, -2.092e-6
0.658, 2.618e-6
0.992, 5.719e-6
1.074, 1.187e-6
0.740, -1.843e-6
0.406, -5.435e-6
0.328, -2.053e-6
0.662, 2.677e-6
0.996, 5.697e-6
1.070, 1.131e-6
0.736, -1.870e-6
0.402, -5.424e-6
0.332, -2.018e-6
0.666, 2.742e-6
1.000, 5.689e-6
1.066, 1.079e-6
0.732, -1.902e-6
0.398, -5.418e-6
0.336, -1.983e-6
0.670, 2.805e-6
1.004, 5.678e-6
1.062, 1.029e-6
0.728, -1.936e-6
0.394, -5.408e-6
0.340, -1.948e-6
0.674, 2.867e-6
1.008, 5.668e-6
1.058, 9.798e-7
0.724, -1.970e-6
0.390, -5.399e-6
0.344, -1.914e-6
0.678, 2.929e-6
1.012, 5.660e-6
1.054, 9.331e-7
0.720, -2.006e-6
0.386, -5.385e-6
0.348, -1.876e-6
0.682, 2.988e-6
1.016, 5.646e-6
1.050, 8.855e-7
0.716, -2.043e-6
0.382, -5.362e-6
0.352, -1.837e-6
0.686, 3.041e-6
1.020, 5.627e-6
1.046, 8.397e-7
0.712, -2.078e-6
0.378, -5.350e-6
0.356, -1.801e-6
0.690, 3.100e-6
1.024, 5.618e-6
1.042, 7.974e-7
0.708, -2.114e-6
0.374, -5.340e-6
0.360, -1.765e-6
0.694, 3.158e-6
1.028, 5.608e-6
1.038, 7.563e-7
0.704, -2.151e-6
0.370, -5.325e-6
0.364, -1.728e-6
0.698, 3.213e-6
1.032, 5.594e-6
1.034, 7.155e-7
0.700, -2.187e-6
0.366, -5.308e-6
0.368, -1.691e-6
0.702, 3.267e-6
1.036, 5.581e-6
1.030, 6.752e-7
0.696, -2.228e-6
0.362, -5.296e-6
0.372, -1.654e-6
0.706, 3.323e-6
1.040, 5.571e-6
1.026, 6.378e-7
0.692, -2.270e-6
0.358, -5.287e-6
0.376, -1.619e-6
0.710, 3.384e-6
1.044, 5.574e-6
1.022, 6.068e-7
0.688, -2.318e-6
0.354, -5.282e-6
0.380, -1.580e-6
0.714, 3.448e-6
1.048, 5.575e-6
1.018, 5.705e-7
0.684, -2.372e-6
0.350, -5.258e-6
0.384, -1.542e-6
0.718, 3.497e-6
1.052, 5.566e-6
1.014, 5.320e-7
0.680, -2.425e-6
0.346, -5.249e-6
0.388, -1.508e-6
0.722, 3.553e-6
1.056, 5.566e-6
1.010, 4.968e-7
0.676, -2.480e-6
0.342, -5.242e-6
0.392, -1.472e-6
0.726, 3.603e-6
1.060, 5.561e-6
1.006, 4.626e-7
0.672, -2.528e-6
0.338, -5.224e-6
0.396, -1.434e-6
0.730, 3.647e-6
1.064, 5.552e-6
1.002, 4.300e-7
0.668, -2.575e-6
0.334, -5.212e-6
0.201, -4.587e-6

File: CV-Carbon-CoHCF-2.txt
Mar. 22, 2022   16:47:09
Cyclic Voltammetry
File: d:\mq\20220322-pba stability\cv-carbon-cohcf-2.txt
Data Source:  Experiment
Instrument Model:  CHI840D
Header:
Note:

Init E (V) = 0.2
High E (V) = 1.2
Low E (V) = 0.2
Init P/N = P
Scan Rate (V/s) = 0.05
Segment = 100
Sample Interval (V) = 0.001
Quiet Time (sec) = 2
Sensitivity (A/V) = 1e-5

Segment 1:

Segment 2:

Segment 3:

Segment 4:

Segment 5:

Segment 6:

Segment 7:

Segment 8:

Segment 9:

Segment 10:

Segment 11:

Segment 12:

Segment 13:

Segment 14:

Segment 15:

Segment 16:

Segment 17:

Segment 18:

Segment 19:

Segment 20:

Segment 21:

Segment 22:

Segment 23:

Segment 24:

Segment 25:

Segment 26:

Segment 27:

Segment 28:

Segment 29:

Segment 30:

Segment 31:

Segment 32:

Segment 33:

Segment 34:

Segment 35:

Segment 36:

Segment 37:

Segment 38:

Segment 39:

Segment 40:

Segment 41:

Segment 42:

Segment 43:

Segment 44:

Segment 45:

Segment 46:

Segment 47:

Segment 48:

Segment 49:

Segment 50:

Segment 51:

Segment 52:

Segment 53:

Segment 54:

Segment 55:

Segment 56:

Segment 57:

Segment 58:

Segment 59:

Segment 60:

Segment 61:

Segment 62:

Segment 63:

Segment 64:

Segment 65:

Segment 66:

Segment 67:

Segment 68:

Segment 69:

Segment 70:

Segment 71:

Segment 72:

Segment 73:

Segment 74:

Segment 75:

Segment 76:

Segment 77:

Segment 78:

Segment 79:

Segment 80:

Segment 81:

Segment 82:

Segment 83:

Segment 84:

Segment 85:

Segment 86:

Segment 87:

Segment 88:

Segment 89:

Segment 90:

Segment 91:

Segment 92:

Segment 93:

Segment 94:

Segment 95:

Segment 96:

Segment 97:

Segment 98:

Segment 99:

Segment 100:

Potential/V, Current/A

0.200, -3.823e-6
0.534, 7.644e-7
0.868, 7.534e-6
1.198, 9.382e-6
0.864, -1.454e-6
0.530, -5.556e-6
0.204, -3.515e-6
0.538, 7.932e-7
0.872, 7.876e-6
1.194, 8.475e-6
0.860, -1.701e-6
0.526, -5.940e-6
0.208, -3.679e-6
0.542, 7.958e-7
0.876, 8.088e-6
1.190, 7.861e-6
0.856, -1.858e-6
0.522, -6.229e-6
0.212, -3.797e-6
0.546, 8.245e-7
0.880, 8.251e-6
1.186, 7.378e-6
0.852, -1.965e-6
0.518, -6.456e-6
0.216, -3.876e-6
0.550, 8.685e-7
0.884, 8.366e-6
1.182, 6.961e-6
0.848, -2.041e-6
0.514, -6.624e-6
0.220, -3.919e-6
0.554, 9.197e-7
0.888, 8.430e-6
1.178, 6.575e-6
0.844, -2.089e-6
0.510, -6.757e-6
0.224, -3.945e-6
0.558, 9.783e-7
0.892, 8.461e-6
1.174, 6.217e-6
0.840, -2.117e-6
0.506, -6.857e-6
0.228, -3.951e-6
0.562, 1.042e-6
0.896, 8.464e-6
1.170, 5.890e-6
0.836, -2.132e-6
0.502, -6.944e-6
0.232, -3.951e-6
0.566, 1.111e-6
0.900, 8.459e-6
1.166, 5.592e-6
0.832, -2.140e-6
0.498, -7.010e-6
0.236, -3.937e-6
0.570, 1.181e-6
0.904, 8.441e-6
1.162, 5.307e-6
0.828, -2.146e-6
0.494, -7.062e-6
0.240, -3.915e-6
0.574, 1.253e-6
0.908, 8.414e-6
1.158, 5.050e-6
0.824, -2.150e-6
0.490, -7.110e-6
0.244, -3.890e-6
0.578, 1.327e-6
0.912, 8.393e-6
1.154, 4.810e-6
0.820, -2.152e-6
0.486, -7.144e-6
0.248, -3.858e-6
0.582, 1.402e-6
0.916, 8.364e-6
1.150, 4.583e-6
0.816, -2.157e-6
0.482, -7.176e-6
0.252, -3.827e-6
0.586, 1.479e-6
0.920, 8.342e-6
1.146, 4.378e-6
0.812, -2.162e-6
0.478, -7.204e-6
0.256, -3.790e-6
0.590, 1.559e-6
0.924, 8.314e-6
1.142, 4.180e-6
0.808, -2.168e-6
0.474, -7.221e-6
0.260, -3.751e-6
0.594, 1.637e-6
0.928, 8.292e-6
1.138, 3.999e-6
0.804, -2.178e-6
0.470, -7.243e-6
0.264, -3.714e-6
0.598, 1.718e-6
0.932, 8.275e-6
1.134, 3.830e-6
0.800, -2.188e-6
0.466, -7.262e-6
0.268, -3.676e-6
0.602, 1.801e-6
0.936, 8.261e-6
1.130, 3.672e-6
0.796, -2.202e-6
0.462, -7.281e-6
0.272, -3.638e-6
0.606, 1.886e-6
0.940, 8.252e-6
1.126, 3.524e-6
0.792, -2.217e-6
0.458, -7.301e-6
0.276, -3.603e-6
0.610, 1.971e-6
0.944, 8.241e-6
1.122, 3.383e-6
0.788, -2.232e-6
0.454, -7.312e-6
0.280, -3.562e-6
0.614, 2.056e-6
0.948, 8.224e-6
1.118, 3.245e-6
0.784, -2.248e-6
0.450, -7.319e-6
0.284, -3.520e-6
0.618, 2.141e-6
0.952, 8.209e-6
1.114, 3.116e-6
0.780, -2.267e-6
0.446, -7.324e-6
0.288, -3.478e-6
0.622, 2.227e-6
0.956, 8.194e-6
1.110, 2.989e-6
0.776, -2.288e-6
0.442, -7.326e-6
0.292, -3.435e-6
0.626, 2.312e-6
0.960, 8.175e-6
1.106, 2.867e-6
0.772, -2.310e-6
0.438, -7.321e-6
0.296, -3.390e-6
0.630, 2.397e-6
0.964, 8.159e-6
1.102, 2.751e-6
0.768, -2.335e-6
0.434, -7.316e-6
0.300, -3.345e-6
0.634, 2.481e-6
0.968, 8.141e-6
1.098, 2.640e-6
0.764, -2.361e-6
0.430, -7.312e-6
0.304, -3.301e-6
0.638, 2.567e-6
0.972, 8.125e-6
1.094, 2.535e-6
0.760, -2.388e-6
0.426, -7.310e-6
0.308, -3.259e-6
0.642, 2.655e-6
0.976, 8.115e-6
1.090, 2.436e-6
0.756, -2.417e-6
0.422, -7.306e-6
0.312, -3.215e-6
0.646, 2.742e-6
0.980, 8.098e-6
1.086, 2.336e-6
0.752, -2.446e-6
0.418, -7.292e-6
0.316, -3.168e-6
0.650, 2.826e-6
0.984, 8.078e-6
1.082, 2.240e-6
0.748, -2.479e-6
0.414, -7.283e-6
0.320, -3.123e-6
0.654, 2.912e-6
0.988, 8.062e-6
1.078, 2.149e-6
0.744, -2.513e-6
0.410, -7.266e-6
0.324, -3.073e-6
0.658, 2.994e-6
0.992, 8.039e-6
1.074, 2.058e-6
0.740, -2.548e-6
0.406, -7.250e-6
0.328, -3.029e-6
0.662, 3.079e-6
0.996, 8.022e-6
1.070, 1.974e-6
0.736, -2.587e-6
0.402, -7.238e-6
0.332, -2.985e-6
0.666, 3.165e-6
1.000, 8.011e-6
1.066, 1.894e-6
0.732, -2.628e-6
0.398, -7.222e-6
0.336, -2.938e-6
0.670, 3.249e-6
1.004, 7.994e-6
1.062, 1.815e-6
0.728, -2.671e-6
0.394, -7.209e-6
0.340, -2.894e-6
0.674, 3.334e-6
1.008, 7.981e-6
1.058, 1.739e-6
0.724, -2.716e-6
0.390, -7.195e-6
0.344, -2.849e-6
0.678, 3.419e-6
1.012, 7.970e-6
1.054, 1.668e-6
0.720, -2.763e-6
0.386, -7.180e-6
0.348, -2.804e-6
0.682, 3.502e-6
1.016, 7.956e-6
1.050, 1.596e-6
0.716, -2.811e-6
0.382, -7.159e-6
0.352, -2.756e-6
0.686, 3.582e-6
1.020, 7.939e-6
1.046, 1.527e-6
0.712, -2.861e-6
0.378, -7.147e-6
0.356, -2.711e-6
0.690, 3.664e-6
1.024, 7.925e-6
1.042, 1.458e-6
0.708, -2.912e-6
0.374, -7.122e-6
0.360, -2.663e-6
0.694, 3.742e-6
1.028, 7.910e-6
1.038, 1.393e-6
0.704, -2.967e-6
0.370, -7.103e-6
0.364, -2.616e-6
0.698, 3.822e-6
1.032, 7.899e-6
1.034, 1.329e-6
0.700, -3.025e-6
0.366, -7.082e-6
0.368, -2.568e-6
0.702, 3.901e-6
1.036, 7.884e-6
1.030, 1.268e-6
0.696, -3.083e-6
0.362, -7.063e-6
0.372, -2.520e-6
0.706, 3.977e-6
1.040, 7.867e-6
1.026, 1.207e-6
0.692, -3.139e-6
0.358, -7.035e-6
0.376, -2.471e-6
0.710, 4.051e-6
1.044, 7.853e-6
1.022, 1.149e-6
0.688, -3.200e-6
0.354, -7.014e-6
0.380, -2.421e-6
0.714, 4.124e-6
1.048, 7.836e-6
1.018, 1.093e-6
0.684, -3.261e-6
0.350, -6.999e-6
0.384, -2.376e-6
0.718, 4.205e-6
1.052, 7.830e-6
1.014, 1.041e-6
0.680, -3.325e-6
0.346, -6.984e-6
0.388, -2.327e-6
0.722, 4.276e-6
1.056, 7.816e-6
1.010, 9.885e-7
0.676, -3.385e-6
0.342, -6.961e-6
0.392, -2.276e-6
0.726, 4.344e-6
1.060, 7.794e-6
1.006, 9.375e-7
0.672, -3.442e-6
0.338, -6.924e-6
0.396, -2.220e-6
0.730, 4.400e-6
1.064, 7.760e-6
1.002, 8.848e-7
0.668, -3.496e-6
0.334, -6.887e-6
0.201, -6.071e-6

File: CV-Carbon-CoHCF-3.txt
Mar. 22, 2022   17:25:20
Cyclic Voltammetry
File: d:\mq\20220322-pba stability\cv-carbon-cohcf-3.txt
Data Source:  Experiment
Instrument Model:  CHI840D
Header:
Note:

Init E (V) = 0.2
High E (V) = 1.2
Low E (V) = 0.2
Init P/N = P
Scan Rate (V/s) = 0.05
Segment = 100
Sample Interval (V) = 0.001
Quiet Time (sec) = 2
Sensitivity (A/V) = 1e-5

Segment 1:

Segment 2:

Segment 3:

Segment 4:

Segment 5:

Segment 6:

Segment 7:

Segment 8:

Segment 9:

Segment 10:

Segment 11:

Segment 12:

Segment 13:

Segment 14:

Segment 15:

Segment 16:

Segment 17:

Segment 18:

Segment 19:

Segment 20:

Segment 21:

Segment 22:

Segment 23:

Segment 24:

Segment 25:

Segment 26:

Segment 27:

Segment 28:

Segment 29:

Segment 30:

Segment 31:

Segment 32:

Segment 33:

Segment 34:

Segment 35:

Segment 36:

Segment 37:

Segment 38:

Segment 39:

Segment 40:

Segment 41:

Segment 42:

Segment 43:

Segment 44:

Segment 45:

Segment 46:

Segment 47:

Segment 48:

Segment 49:

Segment 50:

Segment 51:

Segment 52:

Segment 53:

Segment 54:

Segment 55:

Segment 56:

Segment 57:

Segment 58:

Segment 59:

Segment 60:

Segment 61:

Segment 62:

Segment 63:

Segment 64:

Segment 65:

Segment 66:

Segment 67:

Segment 68:

Segment 69:

Segment 70:

Segment 71:

Segment 72:

Segment 73:

Segment 74:

Segment 75:

Segment 76:

Segment 77:

Segment 78:

Segment 79:

Segment 80:

Segment 81:

Segment 82:

Segment 83:

Segment 84:

Segment 85:

Segment 86:

Segment 87:

Segment 88:

Segment 89:

Segment 90:

Segment 91:

Segment 92:

Segment 93:

Segment 94:

Segment 95:

Segment 96:

Segment 97:

Segment 98:

Segment 99:

Segment 100:

Potential/V, Current/A

0.200, -5.744e-6
0.534, 3.503e-7
0.868, 7.147e-6
1.198, 7.028e-6
0.864, -1.837e-6
0.530, -5.978e-6
0.204, -3.756e-6
0.538, 7.333e-7
0.872, 7.703e-6
1.194, 6.661e-6
0.860, -1.823e-6
0.526, -6.075e-6
0.208, -3.736e-6
0.542, 7.818e-7
0.876, 7.751e-6
1.190, 6.219e-6
0.856, -1.841e-6
0.522, -6.182e-6
0.212, -3.730e-6
0.546, 8.373e-7
0.880, 7.784e-6
1.186, 5.841e-6
0.852, -1.855e-6
0.518, -6.279e-6
0.216, -3.721e-6
0.550, 8.980e-7
0.884, 7.800e-6
1.182, 5.503e-6
0.848, -1.866e-6
0.514, -6.349e-6
0.220, -3.697e-6
0.554, 9.578e-7
0.888, 7.792e-6
1.178, 5.190e-6
0.844, -1.876e-6
0.510, -6.410e-6
0.224, -3.674e-6
0.558, 1.022e-6
0.892, 7.788e-6
1.174, 4.915e-6
0.840, -1.882e-6
0.506, -6.472e-6
0.228, -3.650e-6
0.562, 1.091e-6
0.896, 7.786e-6
1.170, 4.663e-6
0.836, -1.886e-6
0.502, -6.516e-6
0.232, -3.617e-6
0.566, 1.159e-6
0.900, 7.763e-6
1.166, 4.423e-6
0.832, -1.889e-6
0.498, -6.553e-6
0.236, -3.583e-6
0.570, 1.229e-6
0.904, 7.737e-6
1.162, 4.199e-6
0.828, -1.889e-6
0.494, -6.582e-6
0.240, -3.546e-6
0.574, 1.301e-6
0.908, 7.714e-6
1.158, 3.996e-6
0.824, -1.891e-6
0.490, -6.608e-6
0.244, -3.509e-6
0.578, 1.373e-6
0.912, 7.688e-6
1.154, 3.803e-6
0.820, -1.892e-6
0.486, -6.625e-6
0.248, -3.466e-6
0.582, 1.446e-6
0.916, 7.651e-6
1.150, 3.618e-6
0.816, -1.897e-6
0.482, -6.638e-6
0.252, -3.426e-6
0.586, 1.520e-6
0.920, 7.620e-6
1.146, 3.448e-6
0.812, -1.899e-6
0.478, -6.650e-6
0.256, -3.385e-6
0.590, 1.596e-6
0.924, 7.593e-6
1.142, 3.289e-6
0.808, -1.903e-6
0.474, -6.660e-6
0.260, -3.345e-6
0.594, 1.672e-6
0.928, 7.567e-6
1.138, 3.142e-6
0.804, -1.909e-6
0.470, -6.671e-6
0.264, -3.303e-6
0.598, 1.749e-6
0.932, 7.539e-6
1.134, 3.000e-6
0.800, -1.916e-6
0.466, -6.670e-6
0.268, -3.256e-6
0.602, 1.821e-6
0.936, 7.503e-6
1.130, 2.863e-6
0.796, -1.924e-6
0.462, -6.664e-6
0.272, -3.211e-6
0.606, 1.897e-6
0.940, 7.475e-6
1.126, 2.736e-6
0.792, -1.937e-6
0.458, -6.668e-6
0.276, -3.171e-6
0.610, 1.974e-6
0.944, 7.455e-6
1.122, 2.619e-6
0.788, -1.950e-6
0.454, -6.668e-6
0.280, -3.127e-6
0.614, 2.053e-6
0.948, 7.431e-6
1.118, 2.506e-6
0.784, -1.965e-6
0.450, -6.662e-6
0.284, -3.083e-6
0.618, 2.130e-6
0.952, 7.407e-6
1.114, 2.400e-6
0.780, -1.981e-6
0.446, -6.658e-6
0.288, -3.042e-6
0.622, 2.207e-6
0.956, 7.385e-6
1.110, 2.296e-6
0.776, -1.998e-6
0.442, -6.651e-6
0.292, -2.999e-6
0.626, 2.287e-6
0.960, 7.361e-6
1.106, 2.199e-6
0.772, -2.018e-6
0.438, -6.649e-6
0.296, -2.960e-6
0.630, 2.370e-6
0.964, 7.349e-6
1.102, 2.108e-6
0.768, -2.042e-6
0.434, -6.650e-6
0.300, -2.920e-6
0.634, 2.451e-6
0.968, 7.337e-6
1.098, 2.024e-6
0.764, -2.068e-6
0.430, -6.646e-6
0.304, -2.880e-6
0.638, 2.532e-6
0.972, 7.318e-6
1.094, 1.937e-6
0.760, -2.093e-6
0.426, -6.630e-6
0.308, -2.836e-6
0.642, 2.609e-6
0.976, 7.301e-6
1.090, 1.858e-6
0.756, -2.123e-6
0.422, -6.620e-6
0.312, -2.794e-6
0.646, 2.687e-6
0.980, 7.280e-6
1.086, 1.780e-6
0.752, -2.153e-6
0.418, -6.609e-6
0.316, -2.751e-6
0.650, 2.765e-6
0.984, 7.267e-6
1.082, 1.707e-6
0.748, -2.186e-6
0.414, -6.600e-6
0.320, -2.711e-6
0.654, 2.844e-6
0.988, 7.250e-6
1.078, 1.634e-6
0.744, -2.220e-6
0.410, -6.586e-6
0.324, -2.668e-6
0.658, 2.921e-6
0.992, 7.231e-6
1.074, 1.562e-6
0.740, -2.255e-6
0.406, -6.566e-6
0.328, -2.622e-6
0.662, 2.995e-6
0.996, 7.208e-6
1.070, 1.494e-6
0.736, -2.291e-6
0.402, -6.551e-6
0.332, -2.582e-6
0.666, 3.074e-6
1.000, 7.197e-6
1.066, 1.430e-6
0.732, -2.334e-6
0.398, -6.544e-6
0.336, -2.543e-6
0.670, 3.155e-6
1.004, 7.189e-6
1.062, 1.369e-6
0.728, -2.379e-6
0.394, -6.531e-6
0.340, -2.501e-6
0.674, 3.232e-6
1.008, 7.177e-6
1.058, 1.309e-6
0.724, -2.424e-6
0.390, -6.520e-6
0.344, -2.461e-6
0.678, 3.309e-6
1.012, 7.168e-6
1.054, 1.251e-6
0.720, -2.473e-6
0.386, -6.507e-6
0.348, -2.418e-6
0.682, 3.386e-6
1.016, 7.160e-6
1.050, 1.194e-6
0.716, -2.524e-6
0.382, -6.495e-6
0.352, -2.379e-6
0.686, 3.465e-6
1.020, 7.151e-6
1.046, 1.140e-6
0.712, -2.575e-6
0.378, -6.484e-6
0.356, -2.337e-6
0.690, 3.542e-6
1.024, 7.144e-6
1.042, 1.087e-6
0.708, -2.629e-6
0.374, -6.472e-6
0.360, -2.295e-6
0.694, 3.616e-6
1.028, 7.133e-6
1.038, 1.036e-6
0.704, -2.682e-6
0.370, -6.456e-6
0.364, -2.253e-6
0.698, 3.688e-6
1.032, 7.120e-6
1.034, 9.842e-7
0.700, -2.736e-6
0.366, -6.433e-6
0.368, -2.209e-6
0.702, 3.757e-6
1.036, 7.103e-6
1.030, 9.347e-7
0.696, -2.793e-6
0.362, -6.420e-6
0.372, -2.167e-6
0.706, 3.831e-6
1.040, 7.094e-6
1.026, 8.866e-7
0.692, -2.852e-6
0.358, -6.406e-6
0.376, -2.124e-6
0.710, 3.902e-6
1.044, 7.084e-6
1.022, 8.395e-7
0.688, -2.913e-6
0.354, -6.390e-6
0.380, -2.082e-6
0.714, 3.973e-6
1.048, 7.077e-6
1.018, 7.939e-7
0.684, -2.977e-6
0.350, -6.375e-6
0.384, -2.038e-6
0.718, 4.042e-6
1.052, 7.066e-6
1.014, 7.489e-7
0.680, -3.039e-6
0.346, -6.357e-6
0.388, -1.995e-6
0.722, 4.111e-6
1.056, 7.059e-6
1.010, 7.055e-7
0.676, -3.106e-6
0.342, -6.348e-6
0.392, -1.952e-6
0.726, 4.181e-6
1.060, 7.051e-6
1.006, 6.619e-7
0.672, -3.170e-6
0.338, -6.328e-6
0.396, -1.908e-6
0.730, 4.243e-6
1.064, 7.038e-6
1.002, 6.206e-7
0.668, -3.235e-6
0.334, -6.309e-6
0.201, -5.554e-6