Folder: Cyclic-Voltammetry-Analysis/Data/2022-03-23 MQ HCF (part 3)

File: CV-Carbon-FeHCF-1.txt
Mar. 22, 2022   14:31:51
Cyclic Voltammetry
File: d:\mq\20220322-pba stability\cv-carbon-fehcf-1.txt
Data Source:  Experiment
Instrument Model:  CHI840D
Header:
Note:

Init E (V) = -0.3
High E (V) = 0.5
Low E (V) = -0.3
Init P/N = P
Scan Rate (V/s) = 0.05
Segment = 100
Sample Interval (V) = 0.001
Quiet Time (sec) = 2
Sensitivity (A/V) = 1e-5

Segment 1:

Segment 2:

Segment 3:

Segment 4:

Segment 5:

Segment 6:

Segment 7:

Segment 8:

Segment 9:

Segment 10:

Segment 11:

Segment 12:

Segment 13:

Segment 14:

Segment 15:

Segment 16:

Segment 17:

Segment 18:

Segment 19:

Segment 20:

Segment 21:

Segment 22:

Segment 23:

Segment 24:

Segment 25:

Segment 26:

Segment 27:

Segment 28:

Segment 29:

Segment 30:

Segment 31:

Segment 32:

Segment 33:

Segment 34:

Segment 35:

Segment 36:

Segment 37:

Segment 38:

Segment 39:

Segment 40:

Segment 41:

Segment 42:

Segment 43:

Segment 44:

Segment 45:

Segment 46:

Segment 47:

Segment 48:

Segment 49:

Segment 50:

Segment 51:

Segment 52:

Segment 53:

Segment 54:

Segment 55:

Segment 56:

Segment 57:

Segment 58:

Segment 59:

Segment 60:

Segment 61:

Segment 62:

Segment 63:

Segment 64:

Segment 65:

Segment 66:

Segment 67:

Segment 68:

Segment 69:

Segment 70:

Segment 71:

Segment 72:

Segment 73:

Segment 74:

Segment 75:

Segment 76:

Segment 77:

Segment 78:

Segment 79:

Segment 80:

Segment 81:

Segment 82:

Segment 83:

Segment 84:

Segment 85:

Segment 86:

Segment 87:

Segment 88:

Segment 89:

Segment 90:

Segment 91:

Segment 92:

Segment 93:

Segment 94:

Segment 95:

Segment 96:

Segment 97:

Segment 98:

Segment 99:

Segment 100:

Potential/V, Current/A

-0.300, -3.610e-6
-0.033, 5.240e-6
0.234, 1.583e-5
0.499, 7.368e-7
0.232, -2.982e-6
-0.035, -1.563e-5
-0.298, -2.517e-6
-0.031, 5.140e-6
0.236, 1.570e-5
0.497, 7.214e-7
0.230, -2.883e-6
-0.037, -1.548e-5
-0.296, -2.428e-6
-0.029, 5.001e-6
0.238, 1.548e-5
0.495, 7.465e-7
0.228, -2.806e-6
-0.039, -1.526e-5
-0.294, -2.399e-6
-0.027, 4.858e-6
0.240, 1.522e-5
0.493, 7.879e-7
0.226, -2.737e-6
-0.041, -1.498e-5
-0.292, -2.391e-6
-0.025, 4.700e-6
0.242, 1.491e-5
0.491, 8.404e-7
0.224, -2.664e-6
-0.043, -1.466e-5
-0.290, -2.397e-6
-0.023, 4.521e-6
0.244, 1.456e-5
0.489, 9.034e-7
0.222, -2.585e-6
-0.045, -1.430e-5
-0.288, -2.416e-6
-0.021, 4.328e-6
0.246, 1.416e-5
0.487, 9.762e-7
0.220, -2.498e-6
-0.047, -1.389e-5
-0.286, -2.447e-6
-0.019, 4.113e-6
0.248, 1.372e-5
0.485, 1.065e-6
0.218, -2.399e-6
-0.049, -1.343e-5
-0.284, -2.484e-6
-0.017, 3.877e-6
0.250, 1.323e-5
0.483, 1.165e-6
0.216, -2.289e-6
-0.051, -1.292e-5
-0.282, -2.525e-6
-0.015, 3.617e-6
0.252, 1.268e-5
0.481, 1.277e-6
0.214, -2.163e-6
-0.053, -1.236e-5
-0.280, -2.570e-6
-0.013, 3.334e-6
0.254, 1.208e-5
0.479, 1.403e-6
0.212, -2.018e-6
-0.055, -1.175e-5
-0.278, -2.615e-6
-0.011, 3.021e-6
0.256, 1.142e-5
0.477, 1.548e-6
0.210, -1.857e-6
-0.057, -1.107e-5
-0.276, -2.656e-6
-0.009, 2.692e-6
0.258, 1.070e-5
0.475, 1.701e-6
0.208, -1.680e-6
-0.059, -1.035e-5
-0.274, -2.691e-6
-0.007, 2.351e-6
0.260, 9.924e-6
0.473, 1.860e-6
0.206, -1.492e-6
-0.061, -9.580e-6
-0.272, -2.715e-6
-0.005, 2.009e-6
0.262, 9.113e-6
0.471, 2.013e-6
0.204, -1.301e-6
-0.063, -8.785e-6
-0.270, -2.721e-6
-0.003, 1.682e-6
0.264, 8.277e-6
0.469, 2.152e-6
0.202, -1.109e-6
-0.065, -7.974e-6
-0.268, -2.709e-6
-0.001, 1.373e-6
0.266, 7.436e-6
0.467, 2.269e-6
0.200, -9.249e-7
-0.067, -7.176e-6
-0.266, -2.676e-6
0.001, 1.101e-6
0.268, 6.604e-6
0.465, 2.355e-6
0.198, -7.514e-7
-0.069, -6.388e-6
-0.264, -2.624e-6
0.003, 8.671e-7
0.270, 5.813e-6
0.463, 2.407e-6
0.196, -6.010e-7
-0.071, -5.661e-6
-0.262, -2.553e-6
0.005, 6.765e-7
0.272, 5.084e-6
0.461, 2.424e-6
0.194, -4.775e-7
-0.073, -5.001e-6
-0.260, -2.466e-6
0.007, 5.305e-7
0.274, 4.438e-6
0.459, 2.402e-6
0.192, -3.802e-7
-0.075, -4.412e-6
-0.258, -2.366e-6
0.009, 4.212e-7
0.276, 3.870e-6
0.457, 2.348e-6
0.190, -3.054e-7
-0.077, -3.901e-6
-0.256, -2.258e-6
0.011, 3.417e-7
0.278, 3.384e-6
0.455, 2.268e-6
0.188, -2.506e-7
-0.079, -3.458e-6
-0.254, -2.144e-6
0.013, 2.859e-7
0.280, 2.968e-6
0.453, 2.170e-6
0.186, -2.100e-7
-0.081, -3.073e-6
-0.252, -2.028e-6
0.015, 2.451e-7
0.282, 2.623e-6
0.451, 2.062e-6
0.184, -1.818e-7
-0.083, -2.745e-6
-0.250, -1.912e-6
0.017, 2.173e-7
0.284, 2.333e-6
0.449, 1.946e-6
0.182, -1.627e-7
-0.085, -2.472e-6
-0.248, -1.796e-6
0.019, 1.978e-7
0.286, 2.089e-6
0.447, 1.828e-6
0.180, -1.503e-7
-0.087, -2.229e-6
-0.246, -1.685e-6
0.021, 1.845e-7
0.288, 1.892e-6
0.445, 1.714e-6
0.178, -1.432e-7
-0.089, -2.037e-6
-0.244, -1.580e-6
0.023, 1.754e-7
0.290, 1.728e-6
0.443, 1.605e-6
0.176, -1.389e-7
-0.091, -1.876e-6
-0.242, -1.483e-6
0.025, 1.699e-7
0.292, 1.593e-6
0.441, 1.502e-6
0.174, -1.373e-7
-0.093, -1.742e-6
-0.240, -1.392e-6
0.027, 1.668e-7
0.294, 1.478e-6
0.439, 1.407e-6
0.172, -1.375e-7
-0.095, -1.619e-6
-0.238, -1.308e-6
0.029, 1.647e-7
0.296, 1.388e-6
0.437, 1.324e-6
0.170, -1.395e-7
-0.097, -1.524e-6
-0.236, -1.234e-6
0.031, 1.640e-7
0.298, 1.313e-6
0.435, 1.245e-6
0.168, -1.419e-7
-0.099, -1.441e-6
-0.234, -1.163e-6
0.033, 1.638e-7
0.300, 1.246e-6
0.433, 1.169e-6
0.166, -1.444e-7
-0.101, -1.365e-6
-0.232, -1.097e-6
0.035, 1.641e-7
0.302, 1.185e-6
0.431, 1.098e-6
0.164, -1.466e-7
-0.103, -1.301e-6
-0.230, -1.033e-6
0.037, 1.644e-7
0.304, 1.135e-6
0.429, 1.037e-6
0.162, -1.494e-7
-0.105, -1.249e-6
-0.228, -9.766e-7
0.039, 1.658e-7
0.306, 1.096e-6
0.427, 9.812e-7
0.160, -1.524e-7
-0.107, -1.206e-6
-0.226, -9.246e-7
0.041, 1.671e-7
0.308, 1.064e-6
0.425, 9.307e-7
0.158, -1.557e-7
-0.109, -1.168e-6
-0.224, -8.760e-7
0.043, 1.687e-7
0.310, 1.030e-6
0.423, 8.789e-7
0.156, -1.585e-7
-0.111, -1.131e-6
-0.222, -8.277e-7
0.045, 1.688e-7
0.312, 9.998e-7
0.421, 8.325e-7
0.154, -1.614e-7
-0.113, -1.099e-6
-0.220, -7.841e-7
0.047, 1.705e-7
0.314, 9.747e-7
0.419, 7.895e-7
0.152, -1.639e-7
-0.115, -1.072e-6
-0.218, -7.428e-7
0.049, 1.716e-7
0.316, 9.527e-7
0.417, 7.504e-7
0.150, -1.665e-7
-0.117, -1.050e-6
-0.216, -7.052e-7
0.051, 1.732e-7
0.318, 9.347e-7
0.415, 7.141e-7
0.148, -1.698e-7
-0.119, -1.028e-6
-0.214, -6.711e-7
0.053, 1.748e-7
0.320, 9.188e-7
0.413, 6.795e-7
0.146, -1.727e-7
-0.121, -1.013e-6
-0.212, -6.376e-7
0.055, 1.765e-7
0.322, 9.037e-7
0.411, 6.470e-7
0.144, -1.752e-7
-0.123, -9.950e-7
-0.210, -6.052e-7
0.057, 1.778e-7
0.324, 8.908e-7
0.409, 6.162e-7
0.142, -1.779e-7
-0.125, -9.823e-7
-0.208, -5.757e-7
0.059, 1.792e-7
0.326, 8.796e-7
0.407, 5.893e-7
0.140, -1.810e-7
-0.127, -9.704e-7
-0.206, -5.483e-7
0.061, 1.810e-7
0.328, 8.720e-7
0.405, 5.647e-7
0.138, -1.838e-7
-0.129, -9.612e-7
-0.204, -5.220e-7
0.063, 1.825e-7
0.330, 8.643e-7
0.403, 5.401e-7
0.136, -1.866e-7
-0.131, -9.524e-7
-0.202, -4.980e-7
0.065, 1.840e-7
0.332, 8.580e-7
0.401, 5.177e-7
0.134, -1.894e-7
-0.133, -9.469e-7
-0.298, -2.090e-6

File: CV-Carbon-FeHCF-2.txt
Mar. 22, 2022   15:00:47
Cyclic Voltammetry
File: d:\mq\20220322-pba stability\cv-carbon-fehcf-2.txt
Data Source:  Experiment
Instrument Model:  CHI840D
Header:
Note:

Init E (V) = -0.3
High E (V) = 0.5
Low E (V) = -0.3
Init P/N = P
Scan Rate (V/s) = 0.05
Segment = 100
Sample Interval (V) = 0.001
Quiet Time (sec) = 2
Sensitivity (A/V) = 1e-5

Segment 1:

Segment 2:

Segment 3:

Segment 4:

Segment 5:

Segment 6:

Segment 7:

Segment 8:

Segment 9:

Segment 10:

Segment 11:

Segment 12:

Segment 13:

Segment 14:

Segment 15:

Segment 16:

Segment 17:

Segment 18:

Segment 19:

Segment 20:

Segment 21:

Segment 22:

Segment 23:

Segment 24:

Segment 25:

Segment 26:

Segment 27:

Segment 28:

Segment 29:

Segment 30:

Segment 31:

Segment 32:

Segment 33:

Segment 34:

Segment 35:

Segment 36:

Segment 37:

Segment 38:

Segment 39:
Ep = 0.114V
ip = 1.497e-6A
Ah = 1.141e-6C

Segment 40:
Ep = -0.048V
ip = -9.913e-7A
Ah = -1.748e-6C

Segment 41:
Ep = 0.112V
ip = 1.296e-6A
Ah = 7.502e-7C

Segment 42:
Ep = -0.045V
ip = -1.108e-6A
Ah = -1.691e-6C

Segment 43:
Ep = 0.110V
ip = 1.169e-6A
Ah = 5.083e-7C

Segment 44:
Ep = -0.043V
ip = -1.144e-6A
Ah = -1.531e-6C

Segment 45:
Ep = 0.109V
ip = 1.107e-6A
Ah = 3.939e-7C

Segment 46:
Ep = -0.043V
ip = -1.099e-6A
Ah = -1.396e-6C

Segment 47:
Ep = 0.109V
ip = 1.064e-6A
Ah = 3.431e-7C

Segment 48:
Ep = -0.041V
ip = -1.094e-6A
Ah = -1.196e-6C

Segment 49:
Ep = 0.108V
ip = 1.038e-6A
Ah = 2.932e-7C

Segment 50:
Ep = -0.041V
ip = -1.034e-6A
Ah = -1.073e-6C

Segment 51:
Ep = 0.108V
ip = 1.034e-6A
Ah = 2.816e-7C

Segment 52:
Ep = -0.038V
ip = -1.021e-6A
Ah = -9.157e-7C

Segment 53:
Ep = 0.107V
ip = 1.027e-6A
Ah = 2.555e-7C

Segment 54:
Ep = -0.035V
ip = -9.575e-7A
Ah = -7.774e-7C

Segment 55:
Ep = 0.107V
ip = 1.024e-6A
Ah = 2.567e-7C

Segment 56:
Ep = -0.037V
ip = -9.643e-7A
Ah = -7.470e-7C

Segment 57:
Ep = 0.108V
ip = 1.036e-6A
Ah = 2.760e-7C

Segment 58:
Ep = -0.037V
ip = -9.170e-7A
Ah = -6.777e-7C

Segment 59:
Ep = 0.108V
ip = 1.040e-6A
Ah = 2.768e-7C

Segment 60:
Ep = -0.033V
ip = -8.870e-7A
Ah = -5.651e-7C

Segment 61:
Ep = 0.108V
ip = 1.045e-6A
Ah = 2.773e-7C

Segment 62:
Ep = -0.035V
ip = -8.866e-7A
Ah = -5.553e-7C

Segment 63:
Ep = 0.107V
ip = 1.040e-6A
Ah = 2.563e-7C

Segment 64:
Ep = -0.033V
ip = -8.579e-7A
Ah = -4.754e-7C

Segment 65:
Ep = 0.108V
ip = 1.035e-6A
Ah = 2.809e-7C

Segment 66:
Ep = -0.034V
ip = -8.299e-7A
Ah = -4.740e-7C

Segment 67:
Ep = 0.107V
ip = 1.037e-6A
Ah = 2.615e-7C

Segment 68:
Ep = -0.033V
ip = -8.215e-7A
Ah = -4.395e-7C

Segment 69:
Ep = 0.108V
ip = 1.025e-6A
Ah = 2.806e-7C

Segment 70:
Ep = -0.034V
ip = -8.034e-7A
Ah = -4.297e-7C

Segment 71:
Ep = 0.107V
ip = 1.019e-6A
Ah = 2.598e-7C

Segment 72:
Ep = -0.035V
ip = -7.514e-7A
Ah = -4.195e-7C

Segment 73:

Segment 74:
Ep = -0.034V
ip = -7.654e-7A
Ah = -4.015e-7C

Segment 75:

Segment 76:
Ep = -0.035V
ip = -8.117e-7A
Ah = -4.052e-7C

Segment 77:

Segment 78:
Ep = -0.033V
ip = -7.696e-7A
Ah = -3.598e-7C

Segment 79:

Segment 80:
Ep = -0.032V
ip = -7.140e-7A
Ah = -3.423e-7C

Segment 81:

Segment 82:
Ep = -0.035V
ip = -8.270e-7A
Ah = -3.847e-7C

Segment 83:

Segment 84:
Ep = -0.032V
ip = -7.330e-7A
Ah = -3.259e-7C

Segment 85:

Segment 86:
Ep = -0.030V
ip = -7.245e-7A
Ah = -3.090e-7C

Segment 87:

Segment 88:
Ep = -0.033V
ip = -7.283e-7A
Ah = -3.318e-7C

Segment 89:

Segment 90:
Ep = -0.034V
ip = -7.378e-7A
Ah = -3.312e-7C

Segment 91:

Segment 92:
Ep = -0.032V
ip = -7.193e-7A
Ah = -3.076e-7C

Segment 93:

Segment 94:
Ep = -0.033V
ip = -7.297e-7A
Ah = -3.329e-7C

Segment 95:

Segment 96:
Ep = -0.035V
ip = -6.572e-7A
Ah = -3.250e-7C

Segment 97:

Segment 98:
Ep = -0.032V
ip = -6.812e-7A
Ah = -3.018e-7C

Segment 99:

Segment 100:
Ep = -0.035V
ip = -7.213e-7A
Ah = -3.377e-7C

Potential/V, Current/A

-0.300, -4.080e-6
-0.033, 4.165e-6
0.234, 1.118e-5
0.499, 3.711e-7
0.232, -2.659e-6
-0.035, -1.079e-5
-0.298, -1.890e-6
-0.031, 4.092e-6
0.236, 1.114e-5
0.497, 3.787e-7
0.230, -2.412e-6
-0.037, -1.079e-5
-0.296, -1.718e-6
-0.029, 3.977e-6
0.238, 1.094e-5
0.495, 3.950e-7
0.228, -2.322e-6
-0.039, -1.062e-5
-0.294, -1.650e-6
-0.027, 3.864e-6
0.240, 1.070e-5
0.493, 4.174e-7
0.226, -2.262e-6
-0.041, -1.040e-5
-0.292, -1.596e-6
-0.025, 3.747e-6
0.242, 1.044e-5
0.491, 4.390e-7
0.224, -2.206e-6
-0.043, -1.014e-5
-0.290, -1.573e-6
-0.023, 3.611e-6
0.244, 1.015e-5
0.489, 4.657e-7
0.222, -2.140e-6
-0.045, -9.840e-6
-0.288, -1.564e-6
-0.021, 3.459e-6
0.246, 9.822e-6
0.487, 5.044e-7
0.220, -2.065e-6
-0.047, -9.501e-6
-0.286, -1.572e-6
-0.019, 3.287e-6
0.248, 9.447e-6
0.485, 5.564e-7
0.218, -1.978e-6
-0.049, -9.127e-6
-0.284, -1.584e-6
-0.017, 3.094e-6
0.250, 9.028e-6
0.483, 6.217e-7
0.216, -1.879e-6
-0.051, -8.717e-6
-0.282, -1.600e-6
-0.015, 2.879e-6
0.252, 8.571e-6
0.481, 6.981e-7
0.214, -1.768e-6
-0.053, -8.280e-6
-0.280, -1.620e-6
-0.013, 2.641e-6
0.254, 8.076e-6
0.479, 7.849e-7
0.212, -1.641e-6
-0.055, -7.807e-6
-0.278, -1.640e-6
-0.011, 2.380e-6
0.256, 7.532e-6
0.477, 8.796e-7
0.210, -1.496e-6
-0.057, -7.329e-6
-0.276, -1.659e-6
-0.009, 2.099e-6
0.258, 6.946e-6
0.475, 9.851e-7
0.208, -1.336e-6
-0.059, -6.865e-6
-0.274, -1.672e-6
-0.007, 1.811e-6
0.260, 6.334e-6
0.473, 1.089e-6
0.206, -1.169e-6
-0.061, -6.379e-6
-0.272, -1.675e-6
-0.005, 1.518e-6
0.262, 5.698e-6
0.471, 1.186e-6
0.204, -9.960e-7
-0.063, -5.884e-6
-0.270, -1.663e-6
-0.003, 1.238e-6
0.264, 5.065e-6
0.469, 1.268e-6
0.202, -8.274e-7
-0.065, -5.293e-6
-0.268, -1.634e-6
-0.001, 9.889e-7
0.266, 4.452e-6
0.467, 1.327e-6
0.200, -6.746e-7
-0.067, -4.641e-6
-0.266, -1.590e-6
0.001, 7.812e-7
0.268, 3.880e-6
0.465, 1.355e-6
0.198, -5.443e-7
-0.069, -4.037e-6
-0.264, -1.532e-6
0.003, 6.126e-7
0.270, 3.364e-6
0.463, 1.357e-6
0.196, -4.372e-7
-0.071, -3.499e-6
-0.262, -1.468e-6
0.005, 4.837e-7
0.272, 2.906e-6
0.461, 1.337e-6
0.194, -3.521e-7
-0.073, -3.047e-6
-0.260, -1.395e-6
0.007, 3.889e-7
0.274, 2.510e-6
0.459, 1.298e-6
0.192, -2.870e-7
-0.075, -2.655e-6
-0.258, -1.322e-6
0.009, 3.217e-7
0.276, 2.172e-6
0.457, 1.243e-6
0.190, -2.401e-7
-0.077, -2.363e-6
-0.256, -1.245e-6
0.011, 2.737e-7
0.278, 1.892e-6
0.455, 1.180e-6
0.188, -2.064e-7
-0.079, -2.082e-6
-0.254, -1.171e-6
0.013, 2.400e-7
0.280, 1.656e-6
0.453, 1.110e-6
0.186, -1.824e-7
-0.081, -1.854e-6
-0.252, -1.091e-6
0.015, 2.171e-7
0.282, 1.461e-6
0.451, 1.036e-6
0.184, -1.655e-7
-0.083, -1.662e-6
-0.250, -1.016e-6
0.017, 2.008e-7
0.284, 1.302e-6
0.449, 9.600e-7
0.182, -1.544e-7
-0.085, -1.506e-6
-0.248, -9.433e-7
0.019, 1.903e-7
0.286, 1.172e-6
0.447, 8.898e-7
0.180, -1.465e-7
-0.087, -1.383e-6
-0.246, -8.777e-7
0.021, 1.827e-7
0.288, 1.067e-6
0.445, 8.251e-7
0.178, -1.431e-7
-0.089, -1.307e-6
-0.244, -8.153e-7
0.023, 1.779e-7
0.290, 9.851e-7
0.443, 7.662e-7
0.176, -1.408e-7
-0.091, -1.227e-6
-0.242, -7.702e-7
0.025, 1.752e-7
0.292, 9.206e-7
0.441, 7.126e-7
0.174, -1.402e-7
-0.093, -1.178e-6
-0.240, -7.124e-7
0.027, 1.737e-7
0.294, 8.662e-7
0.439, 6.632e-7
0.172, -1.407e-7
-0.095, -1.099e-6
-0.238, -6.641e-7
0.029, 1.723e-7
0.296, 8.244e-7
0.437, 6.200e-7
0.170, -1.417e-7
-0.097, -1.045e-6
-0.236, -6.213e-7
0.031, 1.722e-7
0.298, 7.890e-7
0.435, 5.805e-7
0.168, -1.424e-7
-0.099, -1.010e-6
-0.234, -5.847e-7
0.033, 1.722e-7
0.300, 7.587e-7
0.433, 5.445e-7
0.166, -1.435e-7
-0.101, -9.944e-7
-0.232, -5.469e-7
0.035, 1.723e-7
0.302, 7.330e-7
0.431, 5.106e-7
0.164, -1.448e-7
-0.103, -9.624e-7
-0.230, -5.148e-7
0.037, 1.727e-7
0.304, 7.104e-7
0.429, 4.804e-7
0.162, -1.466e-7
-0.105, -9.149e-7
-0.228, -4.843e-7
0.039, 1.731e-7
0.306, 6.902e-7
0.427, 4.529e-7
0.160, -1.482e-7
-0.107, -8.860e-7
-0.226, -4.554e-7
0.041, 1.737e-7
0.308, 6.740e-7
0.425, 4.264e-7
0.158, -1.499e-7
-0.109, -8.707e-7
-0.224, -4.285e-7
0.043, 1.745e-7
0.310, 6.606e-7
0.423, 4.035e-7
0.156, -1.516e-7
-0.111, -8.603e-7
-0.222, -4.049e-7
0.045, 1.754e-7
0.312, 6.497e-7
0.421, 3.816e-7
0.154, -1.537e-7
-0.113, -8.438e-7
-0.220, -3.814e-7
0.047, 1.762e-7
0.314, 6.386e-7
0.419, 3.606e-7
0.152, -1.561e-7
-0.115, -8.226e-7
-0.218, -3.601e-7
0.049, 1.772e-7
0.316, 6.290e-7
0.417, 3.415e-7
0.150, -1.577e-7
-0.117, -8.087e-7
-0.216, -3.402e-7
0.051, 1.783e-7
0.318, 6.220e-7
0.415, 3.250e-7
0.148, -1.600e-7
-0.119, -8.003e-7
-0.214, -3.220e-7
0.053, 1.795e-7
0.320, 6.148e-7
0.413, 3.095e-7
0.146, -1.618e-7
-0.121, -7.849e-7
-0.212, -3.025e-7
0.055, 1.804e-7
0.322, 6.097e-7
0.411, 2.937e-7
0.144, -1.632e-7
-0.123, -7.717e-7
-0.210, -2.869e-7
0.057, 1.812e-7
0.324, 6.043e-7
0.409, 2.778e-7
0.142, -1.649e-7
-0.125, -7.647e-7
-0.208, -2.699e-7
0.059, 1.822e-7
0.326, 5.988e-7
0.407, 2.669e-7
0.140, -1.670e-7
-0.127, -7.785e-7
-0.206, -2.551e-7
0.061, 1.835e-7
0.328, 5.952e-7
0.405, 2.519e-7
0.138, -1.693e-7
-0.129, -7.573e-7
-0.204, -2.426e-7
0.063, 1.845e-7
0.330, 5.909e-7
0.403, 2.391e-7
0.136, -1.713e-7
-0.131, -7.353e-7
-0.202, -2.264e-7
0.065, 1.861e-7
0.332, 5.887e-7
0.401, 2.273e-7
0.134, -1.731e-7
-0.133, -7.213e-7
-0.298, -1.455e-6

File: CV-Carbon-FeHCF-3.txt
Mar. 22, 2022   15:32:52
Cyclic Voltammetry
File: d:\mq\20220322-pba stability\cv-carbon-fehcf-3.txt
Data Source:  Experiment
Instrument Model:  CHI840D
Header:
Note:

Init E (V) = -0.3
High E (V) = 0.5
Low E (V) = -0.3
Init P/N = P
Scan Rate (V/s) = 0.05
Segment = 100
Sample Interval (V) = 0.001
Quiet Time (sec) = 2
Sensitivity (A/V) = 1e-5

Segment 1:

Segment 2:

Segment 3:

Segment 4:

Segment 5:

Segment 6:

Segment 7:

Segment 8:

Segment 9:

Segment 10:

Segment 11:

Segment 12:

Segment 13:

Segment 14:

Segment 15:

Segment 16:

Segment 17:

Segment 18:

Segment 19:

Segment 20:

Segment 21:

Segment 22:

Segment 23:

Segment 24:

Segment 25:

Segment 26:

Segment 27:

Segment 28:

Segment 29:

Segment 30:

Segment 31:

Segment 32:

Segment 33:

Segment 34:

Segment 35:

Segment 36:

Segment 37:

Segment 38:

Segment 39:

Segment 40:

Segment 41:

Segment 42:

Segment 43:

Segment 44:

Segment 45:

Segment 46:

Segment 47:

Segment 48:

Segment 49:

Segment 50:

Segment 51:

Segment 52:

Segment 53:

Segment 54:

Segment 55:

Segment 56:

Segment 57:

Segment 58:

Segment 59:

Segment 60:

Segment 61:

Segment 62:

Segment 63:

Segment 64:

Segment 65:

Segment 66:

Segment 67:

Segment 68:

Segment 69:

Segment 70:

Segment 71:

Segment 72:

Segment 73:

Segment 74:

Segment 75:

Segment 76:

Segment 77:

Segment 78:

Segment 79:

Segment 80:

Segment 81:

Segment 82:

Segment 83:

Segment 84:

Segment 85:

Segment 86:

Segment 87:

Segment 88:

Segment 89:

Segment 90:

Segment 91:

Segment 92:

Segment 93:

Segment 94:

Segment 95:

Segment 96:

Segment 97:

Segment 98:

Segment 99:

Segment 100:

Potential/V, Current/A

-0.300, -6.606e-6
-0.033, 6.266e-6
0.234, 1.792e-5
0.499, 8.503e-7
0.232, -3.972e-6
-0.035, -1.762e-5
-0.298, -2.933e-6
-0.031, 5.897e-6
0.236, 1.773e-5
0.497, 9.405e-7
0.230, -3.406e-6
-0.037, -1.763e-5
-0.296, -2.818e-6
-0.029, 5.518e-6
0.238, 1.732e-5
0.495, 1.028e-6
0.228, -3.159e-6
-0.039, -1.725e-5
-0.294, -2.799e-6
-0.027, 5.186e-6
0.240, 1.684e-5
0.493, 1.122e-6
0.226, -2.984e-6
-0.041, -1.675e-5
-0.292, -2.818e-6
-0.025, 4.875e-6
0.242, 1.632e-5
0.491, 1.226e-6
0.224, -2.828e-6
-0.043, -1.617e-5
-0.290, -2.852e-6
-0.023, 4.556e-6
0.244, 1.574e-5
0.489, 1.345e-6
0.222, -2.672e-6
-0.045, -1.552e-5
-0.288, -2.906e-6
-0.021, 4.229e-6
0.246, 1.509e-5
0.487, 1.478e-6
0.220, -2.509e-6
-0.047, -1.479e-5
-0.286, -2.966e-6
-0.019, 3.874e-6
0.248, 1.435e-5
0.485, 1.633e-6
0.218, -2.324e-6
-0.049, -1.398e-5
-0.284, -3.029e-6
-0.017, 3.485e-6
0.250, 1.352e-5
0.483, 1.807e-6
0.216, -2.114e-6
-0.051, -1.309e-5
-0.282, -3.097e-6
-0.015, 3.080e-6
0.252, 1.259e-5
0.481, 2.006e-6
0.214, -1.885e-6
-0.053, -1.214e-5
-0.280, -3.162e-6
-0.013, 2.661e-6
0.254, 1.158e-5
0.479, 2.218e-6
0.212, -1.641e-6
-0.055, -1.113e-5
-0.278, -3.210e-6
-0.011, 2.240e-6
0.256, 1.052e-5
0.477, 2.430e-6
0.210, -1.391e-6
-0.057, -1.009e-5
-0.276, -3.236e-6
-0.009, 1.835e-6
0.258, 9.420e-6
0.475, 2.617e-6
0.208, -1.148e-6
-0.059, -9.042e-6
-0.274, -3.230e-6
-0.007, 1.461e-6
0.260, 8.334e-6
0.473, 2.757e-6
0.206, -9.195e-7
-0.061, -8.012e-6
-0.272, -3.190e-6
-0.005, 1.131e-6
0.262, 7.278e-6
0.471, 2.844e-6
0.204, -7.101e-7
-0.063, -7.006e-6
-0.270, -3.120e-6
-0.003, 8.524e-7
0.264, 6.278e-6
0.469, 2.879e-6
0.202, -5.313e-7
-0.065, -6.063e-6
-0.268, -3.019e-6
-0.001, 6.317e-7
0.266, 5.361e-6
0.467, 2.855e-6
0.200, -3.893e-7
-0.067, -5.225e-6
-0.266, -2.894e-6
0.001, 4.741e-7
0.268, 4.566e-6
0.465, 2.790e-6
0.198, -2.839e-7
-0.069, -4.491e-6
-0.264, -2.754e-6
0.003, 3.596e-7
0.270, 3.888e-6
0.463, 2.689e-6
0.196, -2.114e-7
-0.071, -3.871e-6
-0.262, -2.604e-6
0.005, 2.859e-7
0.272, 3.333e-6
0.461, 2.554e-6
0.194, -1.656e-7
-0.073, -3.361e-6
-0.260, -2.447e-6
0.007, 2.364e-7
0.274, 2.867e-6
0.459, 2.389e-6
0.192, -1.362e-7
-0.075, -2.923e-6
-0.258, -2.281e-6
0.009, 2.037e-7
0.276, 2.471e-6
0.457, 2.216e-6
0.190, -1.156e-7
-0.077, -2.542e-6
-0.256, -2.120e-6
0.011, 1.843e-7
0.278, 2.157e-6
0.455, 2.058e-6
0.188, -1.074e-7
-0.079, -2.238e-6
-0.254, -1.968e-6
0.013, 1.727e-7
0.280, 1.911e-6
0.453, 1.907e-6
0.186, -1.054e-7
-0.081, -1.996e-6
-0.252, -1.830e-6
0.015, 1.669e-7
0.282, 1.717e-6
0.451, 1.764e-6
0.184, -1.072e-7
-0.083, -1.802e-6
-0.250, -1.699e-6
0.017, 1.643e-7
0.284, 1.559e-6
0.449, 1.633e-6
0.182, -1.099e-7
-0.085, -1.646e-6
-0.248, -1.582e-6
0.019, 1.638e-7
0.286, 1.437e-6
0.447, 1.521e-6
0.180, -1.148e-7
-0.087, -1.528e-6
-0.246, -1.479e-6
0.021, 1.643e-7
0.288, 1.339e-6
0.445, 1.418e-6
0.178, -1.202e-7
-0.089, -1.430e-6
-0.244, -1.385e-6
0.023, 1.657e-7
0.290, 1.257e-6
0.443, 1.322e-6
0.176, -1.254e-7
-0.091, -1.346e-6
-0.242, -1.297e-6
0.025, 1.676e-7
0.292, 1.188e-6
0.441, 1.235e-6
0.174, -1.301e-7
-0.093, -1.277e-6
-0.240, -1.220e-6
0.027, 1.697e-7
0.294, 1.130e-6
0.439, 1.159e-6
0.172, -1.351e-7
-0.095, -1.218e-6
-0.238, -1.147e-6
0.029, 1.712e-7
0.296, 1.081e-6
0.437, 1.086e-6
0.170, -1.402e-7
-0.097, -1.162e-6
-0.236, -1.078e-6
0.031, 1.731e-7
0.298, 1.036e-6
0.435, 1.020e-6
0.168, -1.446e-7
-0.099, -1.120e-6
-0.234, -1.015e-6
0.033, 1.751e-7
0.300, 9.985e-7
0.433, 9.581e-7
0.166, -1.492e-7
-0.101, -1.077e-6
-0.232, -9.547e-7
0.035, 1.767e-7
0.302, 9.631e-7
0.431, 8.986e-7
0.164, -1.527e-7
-0.103, -1.042e-6
-0.230, -8.990e-7
0.037, 1.786e-7
0.304, 9.325e-7
0.429, 8.456e-7
0.162, -1.563e-7
-0.105, -1.009e-6
-0.228, -8.474e-7
0.039, 1.809e-7
0.306, 9.067e-7
0.427, 7.993e-7
0.160, -1.597e-7
-0.107, -9.820e-7
-0.226, -8.004e-7
0.041, 1.827e-7
0.308, 8.863e-7
0.425, 7.580e-7
0.158, -1.628e-7
-0.109, -9.607e-7
-0.224, -7.564e-7
0.043, 1.842e-7
0.310, 8.659e-7
0.423, 7.164e-7
0.156, -1.660e-7
-0.111, -9.383e-7
-0.222, -7.151e-7
0.045, 1.860e-7
0.312, 8.478e-7
0.421, 6.779e-7
0.154, -1.693e-7
-0.113, -9.213e-7
-0.220, -6.771e-7
0.047, 1.877e-7
0.314, 8.326e-7
0.419, 6.421e-7
0.152, -1.724e-7
-0.115, -9.081e-7
-0.218, -6.413e-7
0.049, 1.891e-7
0.316, 8.182e-7
0.417, 6.099e-7
0.150, -1.749e-7
-0.117, -8.922e-7
-0.216, -6.069e-7
0.051, 1.909e-7
0.318, 8.069e-7
0.415, 5.803e-7
0.148, -1.776e-7
-0.119, -8.788e-7
-0.214, -5.747e-7
0.053, 1.921e-7
0.320, 7.958e-7
0.413, 5.513e-7
0.146, -1.809e-7
-0.121, -8.697e-7
-0.212, -5.444e-7
0.055, 1.927e-7
0.322, 7.846e-7
0.411, 5.217e-7
0.144, -1.830e-7
-0.123, -8.583e-7
-0.210, -5.163e-7
0.057, 1.946e-7
0.324, 7.751e-7
0.409, 4.968e-7
0.142, -1.850e-7
-0.125, -8.511e-7
-0.208, -4.897e-7
0.059, 1.957e-7
0.326, 7.685e-7
0.407, 4.756e-7
0.140, -1.877e-7
-0.127, -8.444e-7
-0.206, -4.645e-7
0.061, 1.966e-7
0.328, 7.624e-7
0.405, 4.535e-7
0.138, -1.902e-7
-0.129, -8.393e-7
-0.204, -4.401e-7
0.063, 1.978e-7
0.330, 7.558e-7
0.403, 4.320e-7
0.136, -1.921e-7
-0.131, -8.321e-7
-0.202, -4.176e-7
0.065, 1.990e-7
0.332, 7.497e-7
0.401, 4.117e-7
0.134, -1.948e-7
-0.133, -8.257e-7
-0.298, -1.953e-6